timestamp,posX,posY,posZ,velX,velY,velZ,accX,accY,accZ,gyroX,gyroY,gyroZ,yaw,pitch,roll,quatX,quatY,quatZ,quatW
14907,0,0,0,0,0,0,-1.446149,0.1101372,-9.184485,28.25,6.5,2.625,0,0,0,0,0,0,1
14923,0,0,0,0,0,0,-1.450938,-0.06225147,-9.246737,20,12.875,7.375,0,0,0,0,0,0,1
14937,0,0,0,0,0,0,-1.508401,-0.07661719,-9.428702,14.125,17.75,12.875,0,0,0,0,0,0,1
14952,0,0,0,0,0,0,-1.498824,-0.03352002,-9.60588,9.5,19.75,18.375,0,0,0,0,0,0,1
14964,0,0,0,0,0,0,-1.417418,0.1532344,-9.701652,5.875,19.75,22,0,0,0,0,0,0,1
14976,0,0,0,0,0,0,-1.326435,0.3112573,-9.701652,5.75,18.375,23.375,0,0,0,0,0,0,1
14989,0,0,0,0,0,0,-1.321646,0.3543545,-9.663342,10.5,16,22.125,0,0,0,0,0,0,1
15001,0,0,0,0,0,0,-1.331224,0.3495659,-9.711228,17.125,12.5,19,0,0,0,0,0,0,1
15013,0,0,0,0,0,0,-1.331224,0.3591431,-9.835732,19.375,8.25,15.375,0,0,0,0,0,0,1
15026,0,0,0,0,0,0,-1.345589,0.4405488,-9.912349,17.875,3.75,12,0,0,0,0,0,0,1
15039,0,0,0,0,0,0,-1.417418,0.4788574,-9.897983,16.875,0.125,8.375,0,0,0,0,0,0,1
15051,0,0,0,0,0,0,-1.426995,0.4261831,-9.816577,16.375,-2,4.125,0,0,0,0,0,0,1
15063,0,0,0,0,0,0,-1.465304,0.3591431,-9.711228,18.75,-2.875,0.875,0,0,0,0,0,0,1
15076,0,0,0,0,0,0,-1.54671,0.2825259,-9.668132,20.75,-2.625,-1,0,0,0,0,0,0,1
15088,0,0,0,0,0,0,-1.551498,0.2537944,-9.692075,21.25,-2.375,-1.625,0,0,0,0,0,0,1
15100,0,0,0,0,0,0,-1.522767,0.2681602,-9.73996,21.875,-3.125,-1.75,0,0,0,0,0,0,1
15113,0,0,0,0,0,0,-1.527555,0.3208345,-9.759114,22.125,-4.125,-2.5,0,0,0,0,0,0,1
15126,0,0,0,0,0,0,-1.551498,0.3447773,-9.749537,23.875,-5.125,-3.75,0,0,0,0,0,0,1
15138,0,0,0,0,0,0,-1.494035,0.3064688,-9.730383,24.5,-6.25,-4.875,0,0,0,0,0,0,1
15151,0,0,0,0,0,0,-1.489247,0.3112573,-9.663342,22.75,-6.875,-6.375,0,0,0,0,0,0,1
15163,0,0,0,0,0,0,-1.484458,0.3064688,-9.596303,23.25,-7.25,-8.875,0,0,0,0,0,0,1
15175,0,0,0,0,0,0,-1.474881,0.2681602,-9.581937,26.75,-8.125,-11.5,0,0,0,0,0,0,1
15188,0,0,0,0,0,0,-1.446149,0.2346401,-9.610668,30,-8.125,-13,0,0,0,0,0,0,1
15200,0,0,0,0,0,0,-1.498824,0.2202744,-9.625034,30,-7.75,-13.125,0,0,0,0,0,0,1
15213,0,0,0,0,0,0,-1.541921,0.2490059,-9.615458,28.875,-7.25,-13.125,0,0,0,0,0,0,1
15225,0,0,0,0,0,0,-1.489247,0.2729487,-9.610668,29.125,-6.625,-13.625,0,0,0,0,0,0,1
15237,0,0,0,0,0,0,-1.426995,0.2106973,-9.567572,29.5,-6.125,-13.75,0,0,0,0,0,0,1
15249,0,0,0,0,0,0,-1.369532,0.09577148,-9.495743,29.75,-6.25,-13.875,0,0,0,0,0,0,1
15262,0,0,0,0,0,0,-1.350378,0.02873145,-9.495743,31.25,-7.375,-13.875,0,0,0,0,0,0,1
15274,0,0,0,0,0,0,-1.407841,0.02873145,-9.534052,31.875,-8.375,-13.125,0,0,0,0,0,0,1
15286,0,0,0,0,0,0,-1.465304,0.02394287,-9.596303,28.875,-8.5,-11.25,0,0,0,0,0,0,1
15298,0,0,0,0,0,0,-1.551498,0.03830859,-9.644189,19.875,-7,-8.75,0,0,0,0,0,0,1
15311,0,0,0,0,0,0,-1.508401,0.1532344,-9.615458,12.125,-5.25,-6.375,0,0,0,0,0,0,1
15323,0,0,0,0,0,0,-1.465304,0.1340801,-9.60588,14.875,-4.25,-5.25,0,0,0,0,0,0,1
15337,0,0,0,0,0,0,-1.494035,0.1245029,-9.663342,21.125,-4.375,-4.875,0,0,0,0,0,0,1
15349,0,0,0,0,0,0,-1.532344,0.08619434,-9.668132,27.375,-4.75,-4.75,0,0,0,0,0,0,1
15361,0,0,0,0,0,0,-1.575441,0.004788574,-9.658554,28.625,-4.25,-2.375,0,0,0,0,0,0,1
15373,0,0,0,0,0,0,-1.503612,0.04309717,-9.648977,22.75,-3.5,1.375,0,0,0,0,0,0,1
15386,0,0,0,0,0,0,-1.460515,0.1628115,-9.586726,16.875,-2.75,3.75,0,0,0,0,0,0,1
15397,0,0,0,0,0,0,-1.513189,0.1963315,-9.534052,15.75,-2.125,3.5,0,0,0,0,0,0,1
15410,0,0,0,0,0,0,-1.585018,0.158023,-9.543629,16.25,-1.375,2.5,0,0,0,0,0,0,1
15423,0,0,0,0,0,0,-1.589807,0.1101372,-9.586726,16.75,-1,2,0,0,0,0,0,0,1
15435,0,0,0,0,0,0,-1.541921,0.06225147,-9.601091,19.125,-1.625,2.25,0,0,0,0,0,0,1
15447,0,0,0,0,0,0,-1.54671,0.04309717,-9.586726,23.25,-2.25,2.375,0,0,0,0,0,0,1
15460,0,0,0,0,0,0,-1.628115,0.04788574,-9.57236,23.875,-1.625,3,0,0,0,0,0,0,1
15472,0,0,0,0,0,0,-1.666424,0.07661719,-9.586726,22.5,-0.25,3.375,0,0,0,0,0,0,1
15484,0,0,0,0,0,0,-1.632904,0.1101372,-9.625034,22.125,1,3.125,0,0,0,0,0,0,1
15497,0,0,0,0,0,0,-1.570652,0.09577148,-9.629823,24.5,1.125,2.25,0,0,0,0,0,0,1
15510,0,0,0,0,0,0,-1.508401,0.08619434,-9.634611,26.375,0,1.625,0,0,0,0,0,0,1
15522,0,0,0,0,0,0,-1.436572,0.09577148,-9.648977,27.25,-2.125,1.5,0,0,0,0,0,0,1
15535,0,0,0,0,0,0,-1.436572,0.07182861,-9.625034,25.875,-3.625,1.625,0,0,0,0,0,0,1
15547,0,0,0,0,0,0,-1.54671,0.05267432,-9.577148,22.625,-3.875,1.375,0,0,0,0,0,0,1
15559,0,0,0,0,0,0,-1.608961,0.06225147,-9.567572,21.875,-3.625,-0.25,0,0,0,0,0,0,1
15572,0,0,0,0,0,0,-1.652058,0.07182861,-9.653766,24.625,-3.5,-2.375,0,0,0,0,0,0,1
15584,0,0,0,0,0,0,-1.64727,0.06225147,-9.744749,28.875,-4.375,-4,0,0,0,0,0,0,1
15596,0,0,0,0,0,0,-1.618538,0.04309717,-9.759114,32.25,-5.875,-5,0,0,0,0,0,0,1
15609,0,0,0,0,0,0,-1.556287,0.04309717,-9.67292,32.625,-6.875,-4.875,0,0,0,0,0,0,1
15621,0,0,0,0,0,0,-1.484458,0.04788574,-9.586726,31.125,-7.125,-4.375,0,0,0,0,0,0,1
15633,0,0,0,0,0,0,-1.465304,0.04309717,-9.500531,27,-6.625,-3.375,0,0,0,0,0,0,1
15645,0,0,0,0,0,0,-1.465304,0.0191543,-9.467011,22.5,-5.25,-1.75,0,0,0,0,0,0,1
15658,0,0,0,0,0,0,-1.513189,-0.009577149,-9.481377,18.75,-3.625,-0.625,0,0,0,0,0,0,1
15670,0,0,0,0,0,0,-1.628115,0,-9.53884,16.625,-2,0.125,0,0,0,0,0,0,1
15683,0,0,0,0,0,0,-1.642481,0.009577149,-9.581937,15.5,-0.875,1.125,0,0,0,0,0,0,1
15695,0,0,0,0,0,0,-1.61375,0.02873145,-9.601091,16.75,-0.375,1.75,0,0,0,0,0,0,1
15707,0,0,0,0,0,0,-1.58023,0.04788574,-9.610668,19.25,-0.375,2,0,0,0,0,0,0,1
15720,0,0,0,0,0,0,-1.570652,0.07661719,-9.601091,18.625,-0.75,2.25,0,0,0,0,0,0,1
15733,0,0,0,0,0,0,-1.594595,0.1101372,-9.586726,17.125,-1,2.125,0,0,0,0,0,0,1
15745,0,0,0,0,0,0,-1.61375,0.07661719,-9.567572,16.625,-1.125,1.5,0,0,0,0,0,0,1
15757,0,0,0,0,0,0,-1.64727,0.02394287,-9.557994,15.75,-0.125,1.375,0,0,0,0,0,0,1
15770,0,0,0,0,0,0,-1.642481,-0.004788574,-9.57236,15.25,1.125,1.625,0,0,0,0,0,0,1
15782,0,0,0,0,0,0,-1.604172,-0.02394287,-9.625034,14.75,1.25,2.125,0,0,0,0,0,0,1
15794,0,0,0,0,0,0,-1.575441,-0.009577149,-9.644189,15.25,0.625,2.625,0,0,0,0,0,0,1
15806,0,0,0,0,0,0,-1.599384,-0.02394287,-9.615458,18.5,-0.375,2.375,0,0,0,0,0,0,1
15819,0,0,0,0,0,0,-1.632904,-0.05746289,-9.615458,21.625,-1.5,1.75,0,0,0,0,0,0,1
15831,0,0,0,0,0,0,-1.64727,-0.05746289,-9.634611,22.75,-2.125,1.125,0,0,0,0,0,0,1
15844,0,0,0,0,0,0,-1.676001,-0.04788574,-9.653766,22.25,-2.5,0.375,0,0,0,0,0,0,1
15856,0,0,0,0,0,0,-1.652058,-0.04788574,-9.658554,21.25,-3.25,-0.5,0,0,0,0,0,0,1
15868,0,0,0,0,0,0,-1.628115,-0.06704004,-9.663342,21.75,-4.625,-1.25,0,0,0,0,0,0,1
15881,0,0,0,0,0,0,-1.608961,-0.1053486,-9.6394,20.875,-5.625,-1.625,0,0,0,0,0,0,1
15893,0,0,0,0,0,0,-1.594595,0,-9.596303,19.5,-6.25,-1.375,0,9.006078,179.2956,0.9968944,-0.07851049,-0.0004826275,0.006128208
15918,0,0,0,0,0,0,-1.637692,0.02873145,-9.625034,23.25,-6.375,-0.75,0.02641528,9.187484,179.3816,0.996773,-0.08008764,-0.0006619641,0.005397441
15931,0,0,0,0,0,0,-1.637692,0.004788574,-9.620246,23.25,-6.625,0.25,0.02536863,9.274727,179.4231,0.9967136,-0.08084679,-0.0006276745,0.005035732
15943,0,0,0,0,0,0,-1.632904,-0.01436572,-9.625034,20.375,-6.5,1.125,0.01234098,9.355705,179.424,0.9966564,-0.08155169,-0.0005172975,0.005018964
15955,0,0,0,0,0,0,-1.632904,0.009577149,-9.610668,18.375,-6.375,1.5,-0.005100924,9.426791,179.3945,0.9966043,-0.08217061,-0.0003897952,0.005262033
15967,0,0,0,0,0,0,-1.656847,0.04788574,-9.620246,18.375,-6.25,1,-0.01814338,9.505463,179.3575,0.996546,-0.08285528,-0.0003067928,0.005574661
15978,0,0,0,0,0,0,-1.68079,0.09577148,-9.658554,20.375,-6.125,0,-0.01793219,9.575929,179.3455,0.9964942,-0.08346804,-0.0003208215,0.00567887
15990,0,0,0,0,0,0,-1.699944,0.1005601,-9.692075,22.25,-6.25,-0.75,-0.00788343,9.648916,179.3591,0.9964415,-0.08410229,-0.0004018582,0.005567635
16001,0,0,0,0,0,0,-1.699944,0.07661719,-9.687285,23.125,-6,-1.25,0.009248072,9.716366,179.3883,0.9963932,-0.08468807,-0.0005325216,0.005326062
16013,0,0,0,0,0,0,-1.642481,0.06225147,-9.648977,24,-5.75,-1.5,0.03032173,9.772233,179.4315,0.9963536,-0.08517314,-0.0006862218,0.00496579
16024,0,0,0,0,0,0,-1.575441,0.03352002,-9.577148,24.75,-5.75,-1.25,0.04833667,9.817352,179.4863,0.9963222,-0.08556504,-0.0008038713,0.004502713
16037,0,0,0,0,0,0,-1.561075,0.0191543,-9.534052,21.875,-5.25,0,0.05050929,9.858711,179.5043,0.9962918,-0.08592468,-0.0008108703,0.004347945
16050,0,0,0,0,0,0,-1.537132,0.08140577,-9.50532,17.25,-3.875,1.625,0.02734316,9.874594,179.4405,0.9962775,-0.08606329,-0.0006579522,0.004885055
16062,0,0,0,0,0,0,-1.652058,0.08619434,-9.514897,14.875,-2.5,2.875,-0.01332838,9.889034,179.3414,0.9962623,-0.08619026,-0.0003794802,0.005715793
16074,0,0,0,0,0,0,-1.695155,0.09098291,-9.615458,12.875,-1.5,3.625,-0.05961711,9.892533,179.2259,0.9962534,-0.08622297,-6.411658E-05,0.006684973
16085,0,0,0,0,0,0,-1.671212,0.1149258,-9.687285,12,-1.5,4.5,-0.1194237,9.890183,179.0922,0.9962468,-0.08620649,0.0003553737,0.007802659
16096,0,0,0,0,0,0,-1.709521,0.1101372,-9.663342,13.75,-2,4.625,-0.1771678,9.900359,178.9912,0.9962316,-0.0862996,0.0007806373,0.008636872
16108,0,0,0,0,0,0,-1.728675,0.06225147,-9.620246,17.75,-2.375,4.25,-0.2300079,9.91949,178.9501,0.9962135,-0.08647034,0.001207495,0.008954088
16119,0,0,0,0,0,0,-1.690367,0.009577149,-9.557994,22.75,-3.125,4.125,-0.2799838,9.943924,178.9836,0.996197,-0.08668616,0.001665274,0.00862495
16131,0,0,0,0,0,0,-1.709521,-0.04309717,-9.519686,23.75,-3.125,4.25,-0.3302922,9.971687,179.0371,0.996179,-0.0869303,0.002141041,0.008120582
16142,0,0,0,0,0,0,-1.733464,-0.1628115,-9.514897,16.875,-1.5,5.5,-0.3933527,9.98104,179.0157,0.9961691,-0.08701658,0.002672267,0.008258671
16154,0,0,0,0,0,0,-1.771773,-0.1963315,-9.534052,6.375,0.5,8.375,-0.4927969,9.968712,178.8574,0.9961635,-0.08692133,0.003417638,0.009559899
16165,0,0,0,0,0,0,-1.771773,0.1532344,-9.534052,5.5,1.625,8.75,-0.6058717,9.9414,178.6359,0.9961601,-0.08670163,0.00423557,0.01140044
16177,0,0,0,0,0,0,-1.743041,0.1292915,-9.620246,13.5,0.5,6.125,-0.6826667,9.923311,178.5345,0.9961603,-0.08655632,0.004828469,0.01222551
16188,0,0,0,0,0,0,-1.757407,0.03352002,-9.577148,18,-2.25,4.75,-0.7396671,9.945302,178.5116,0.9961388,-0.08675462,0.005304105,0.01237993
16199,0,0,0,0,0,0,-1.790927,-0.1053486,-9.562783,22.5,-3.875,3.625,-0.7780747,9.993472,178.5717,0.9961067,-0.08717453,0.00567802,0.01182503
16211,0,0,0,0,0,0,-1.819658,-0.158023,-9.625034,21.25,-4,4.5,-0.8276832,10.04523,178.6208,0.9960697,-0.08762687,0.006140937,0.01135639
16222,0,0,0,0,0,0,-1.834024,-0.0191543,-9.648977,17.25,-3.25,6.125,-0.9004354,10.08535,178.5914,0.9960321,-0.08798452,0.006746282,0.01155354
16234,0,0,0,0,0,0,-1.752618,0.08140577,-9.596303,15.625,-2,5.875,-0.9736567,10.0982,178.5259,0.9960109,-0.08810782,0.007330908,0.0120655
16245,0,0,0,0,0,0,-1.671212,0.1676001,-9.476588,16.875,-0.125,3.625,-1.018618,10.07775,178.4699,0.9960176,-0.08793854,0.007681166,0.01251935
16258,0,0,0,0,0,0,-1.589807,0.2394287,-9.366451,22.75,1.375,-0.625,-1.007003,10.02331,178.4933,0.9960625,-0.08746257,0.007604714,0.01233003
16271,0,0,0,0,0,0,-1.54671,0.1053486,-9.328143,26.75,2.5,-4.375,-0.9386066,9.953288,178.6027,0.9961314,-0.08683978,0.007101582,0.01143644
16283,0,0,0,0,0,0,-1.508401,-0.03352002,-9.376028,24.5,2.875,-6,-0.8427472,9.872091,178.7063,0.9962081,-0.08611864,0.006355177,0.01061467
16295,0,0,0,0,0,0,-1.522767,-0.09098291,-9.495743,22.125,2.25,-5.875,-0.755765,9.806956,178.7763,0.9962677,-0.08554085,0.00565798,0.01007551
16306,0,0,0,0,0,0,-1.632904,-0.1101372,-9.60588,21.5,1.25,-5,-0.6807826,9.770156,178.8368,0.9963038,-0.08521162,0.005054671,0.009607346
16317,0,0,0,0,0,0,-1.733464,-0.1245029,-9.682497,22,0,-3.375,-0.6264628,9.762761,178.9016,0.9963169,-0.08514017,0.004631219,0.009084795
16329,0,0,0,0,0,0,-1.743041,-0.1053486,-9.720806,23.25,-1,-1.5,-0.5983783,9.768502,178.9733,0.9963192,-0.0851851,0.00443977,0.008482755
16340,0,0,0,0,0,0,-1.723887,-0.04788574,-9.711228,24.625,-1.75,0.5,-0.5986602,9.780724,179.0475,0.9963154,-0.08528848,0.004496463,0.007836601
16352,0,0,0,0,0,0,-1.723887,-0.01436572,-9.668132,25.125,-1.625,1.875,-0.6182078,9.791848,179.118,0.9963109,-0.08538365,0.004718165,0.007207783
16363,0,0,0,0,0,0,-1.728675,0.009577149,-9.629823,22,-0.875,3.5,-0.6604245,9.794406,179.1392,0.9963086,-0.08540758,0.005100779,0.006992495
16375,0,0,0,0,0,0,-1.71431,0.08619434,-9.648977,17.125,0,5,-0.7234346,9.78258,179.0815,0.9963108,-0.08531144,0.005606498,0.0074478
16386,0,0,0,0,0,0,-1.676001,0.1867544,-9.692075,14.125,0.375,5.375,-0.7944026,9.75893,178.9692,0.9963169,-0.08511647,0.006141915,0.008372564
16398,0,0,0,0,0,0,-1.676001,0.1963315,-9.711228,13,0.25,5.375,-0.8656024,9.736723,178.8429,0.9963196,-0.08493599,0.006669206,0.009419482
16409,0,0,0,0,0,0,-1.752618,0.1197144,-9.70644,12.375,-0.375,6.25,-0.9436831,9.734682,178.7252,0.9963062,-0.08493214,0.007260981,0.01038577
16421,0,0,0,0,0,0,-1.829235,0.1101372,-9.696863,11.875,-1.5,7.5,-1.039589,9.758452,178.5999,0.9962703,-0.08515627,0.007999289,0.01140164
16432,0,0,0,0,0,0,-1.877121,0.158023,-9.677709,12.75,-2.75,7.875,-1.143046,9.805881,178.4792,0.9962149,-0.08558816,0.008803221,0.01236936
16443,0,0,0,0,0,0,-1.925007,0.1723887,-9.629823,13.5,-4.25,7.5,-1.237749,9.877323,178.3745,0.9961423,-0.08622817,0.009538936,0.01320133
16455,0,0,0,0,0,0,-1.939373,0.2059087,-9.577148,14.375,-5.125,6.5,-1.323167,9.96464,178.2772,0.9960576,-0.08700567,0.01019609,0.01397286
16466,0,0,0,0,0,0,-1.905853,0.2537944,-9.567572,17.25,-5.875,4.125,-1.378745,10.05633,178.2174,0.9959756,-0.08781493,0.0106205,0.01444017
16478,0,0,0,0,0,0,-1.929795,0.292103,-9.567572,18.75,-6.375,0.625,-1.388871,10.16162,178.1794,0.995889,-0.08873481,0.01066387,0.01475026
16490,0,0,0,0,0,0,-1.94895,0.2011201,-9.57236,17,-6.875,-1.875,-1.36311,10.26815,178.1418,0.995804,-0.08966062,0.01039491,0.0150843
16502,0,0,0,0,0,0,-1.944161,0.1340801,-9.601091,15.375,-8.125,-2.875,-1.321378,10.39097,178.0954,0.9957052,-0.09072644,0.0099771,0.01550629
16513,0,0,0,0,0,0,-1.934584,0.1484458,-9.653766,17.375,-9.5,-3.5,-1.274383,10.51932,178.0773,0.9956049,-0.09183677,0.009534592,0.01568649
16524,0,0,0,0,0,0,-1.91543,0.1532344,-9.687285,19.25,-10.75,-4.375,-1.214993,10.66071,178.0853,0.9954972,-0.09305628,0.009003173,0.01565066
16536,0,0,0,0,0,0,-1.944161,0.1532344,-9.668132,20.375,-11.75,-5,-1.146999,10.81807,178.1094,0.9953774,-0.09441217,0.008408271,0.01548006
16547,0,0,0,0,0,0,-1.977681,0.1771773,-9.610668,21,-12.625,-6.25,-1.065779,10.98499,178.1396,0.995249,-0.09584895,0.007702856,0.01526854
16559,0,0,0,0,0,0,-1.972893,0.2202744,-9.524474,23.25,-12.875,-8.125,-0.9602723,11.15534,178.1966,0.99512,-0.09731086,0.006809672,0.01484729
16571,0,0,0,0,0,0,-1.977681,0.2011201,-9.490954,27.625,-12.5,-11,-0.8052227,11.33149,178.3286,0.9949945,-0.09881384,0.005551913,0.01381961
16583,0,0,0,0,0,0,-1.934584,0.1197144,-9.524474,30,-11.625,-12.875,-0.618726,11.48449,178.5116,0.9948907,-0.1001133,0.004072281,0.0123832
16595,0,0,0,0,0,0,-1.886698,0.0191543,-9.510109,32.25,-11.5,-13.25,-0.4378459,11.61365,178.7232,0.994804,-0.1012101,0.0026738,0.01069813
16606,0,0,0,0,0,0,-1.853178,-0.1723887,-9.524474,34.5,-11.875,-12.125,-0.2638125,11.73978,178.9902,0.9947175,-0.1022857,0.001388851,0.00853021
16618,0,0,0,0,0,0,-1.877121,-0.3304116,-9.548417,34,-12.25,-8.875,-0.1347674,11.86385,179.2491,0.9946242,-0.1033521,0.0004925312,0.006396204
16629,0,0,0,0,0,0,-1.901064,-0.4309717,-9.490954,32.375,-12.375,-4,-0.06447501,11.99373,179.49,0.9945179,-0.1044755,9.460136E-05,0.004367391
16641,0,0,0,0,0,0,-1.987258,-0.5411089,-9.198852,23.875,-11,1,-0.05717673,12.12403,179.6198,0.9944028,-0.1056059,0.0001457876,0.0032466
16653,0,0,0,0,0,0,-1.805292,-0.1149258,-8.820554,-6.75,-1.25,7.5,-0.1629532,12.1043,179.2121,0.9944029,-0.1054407,0.0006891064,0.006687814
16666,0,0,0,0,0,0,-1.537132,0.3878745,-8.705628,0.75,9.5,5.375,-0.2473908,11.89029,178.8549,0.9945718,-0.1035923,0.00111217,0.00971531
16679,1.45556E-05,-2.452551E-05,-0.0001745516,0.001017661,-0.001714711,-0.01220385,-1.738253,0.2106973,-8.73436,25.875,17.75,1.375,-0.2627192,11.59787,178.9088,0.9948371,-0.1010547,0.00131865,0.009242502
16691,4.000033E-06,-2.851109E-05,-0.0004723919,-0.0007655622,-0.0002890616,-0.02160141,-1.91543,-0.05746289,-8.878016,40.75,25.375,-1.625,-0.2249134,11.24515,179.2211,0.9951653,-0.09798583,0.001287305,0.006572101
16702,-5.869121E-05,-1.863528E-05,-0.0008084893,-0.004861293,0.0007658034,-0.02606214,-2.102184,-0.09577148,-9.184485,49.25,32.5,-3,-0.1733459,10.85095,179.6236,0.995514,-0.09455528,0.00119536,0.003127074
16714,-0.0001911384,-1.356852E-05,-0.001156485,-0.009963681,0.0003811602,-0.02617889,-2.154858,-0.05746289,-9.519686,53,36.625,-3.625,-0.1185098,10.39627,-179.9284,0.9958866,-0.09059946,0.001086586,-0.0007163605
16725,-0.0003569777,-5.811504E-06,-0.001462265,-0.01293901,0.0006052132,-0.02385734,-1.958527,-0.1723887,-9.749537,50.125,37.875,-2.875,-0.07843717,9.917414,-179.5303,0.9962484,-0.08643422,0.001036203,-0.00414246
16737,-0.0005539734,4.082425E-05,-0.00173305,-0.01521203,0.003601216,-0.02091005,-1.829235,-0.4405488,-9.816577,41.5,36.75,0.125,-0.0755337,9.439873,-179.2174,0.996585,-0.08227887,0.001218891,-0.006860804
16748,-0.0007985008,0.000128984,-0.002010731,-0.01849817,0.006669168,-0.02100622,-1.786138,-0.4549146,-9.586726,26.375,35.75,5.75,-0.1507398,8.979278,-179.1145,0.9969001,-0.07826628,0.001916242,-0.007806322
16760,-0.001077396,0.0002061984,-0.002368629,-0.02160637,0.005981906,-0.02772684,-1.628115,-0.1532344,-9.098291,18.75,35,9.125,-0.2760934,8.541372,-179.1663,0.9971928,-0.07444887,0.002944392,-0.007434481
16771,-0.001424423,0.0002731798,-0.00287725,-0.02686175,0.005184716,-0.03936998,-1.671212,-0.1149258,-8.710417,11.75,36.25,10.125,-0.4145409,8.116709,-179.3135,0.9974665,-0.07074908,0.00403242,-0.006232197
16782,-0.001833964,0.0003520175,-0.003544863,-0.0309461,0.005957212,-0.05044677,-1.503612,-0.1963315,-8.801399,1.75,41.5,7.625,-0.5192162,7.59177,-179.573,0.997788,-0.06618425,0.00476771,-0.004017954
16794,-0.0022257,0.0004087279,-0.00429242,-0.03086482,0.004468197,-0.05889983,-1.115738,0.02394287,-9.026463,-1.625,45.875,2.5,-0.5553494,6.978154,-179.8847,0.9981339,-0.06085262,0.004898545,-0.0012989
16805,-0.002584043,0.0004191611,-0.005162425,-0.0275056,0.0008008298,-0.0667797,-0.7613833,0.2346401,-9.127023,0.5,47.625,-4.625,-0.498512,6.282033,179.8082,0.9984873,-0.05480029,0.004252043,0.001433392
16817,-0.002915923,0.0003618744,-0.006145341,-0.02546849,-0.004396183,-0.07542904,-0.7518061,0.3878745,-9.064771,7.75,46,-12.25,-0.3404884,5.625133,179.5879,0.9987851,-0.04907898,0.002791251,0.003446224
16828,-0.003279577,0.0002244523,-0.00720679,-0.02753499,-0.01040524,-0.08037014,-0.9960235,0.4405488,-9.332932,26.75,44.875,-23.375,-0.03151776,5.028449,179.6269,0.9990321,-0.04386807,0.0001319398,0.003240936
16840,-0.003655066,5.637886E-05,-0.008219857,-0.02959169,-0.0132456,-0.07983819,-0.9433491,0.1532344,-9.759114,46.375,44.125,-33.125,0.3917874,4.464852,179.9651,0.9992352,-0.03895206,-0.003428259,0.0004376722
16851,-0.004064523,-0.0001029746,-0.009240688,-0.03127298,-0.01217089,-0.07796769,-0.8188462,-0.2490059,-9.869251,57.875,41.25,-39.25,0.9083676,3.911613,-179.4816,0.9993771,-0.03416306,-0.007767835,-0.00425046
16863,-0.004549185,-0.0002450628,-0.01027019,-0.03697448,-0.01083981,-0.07853976,-1.029544,-0.3639317,-9.668132,55.625,38.75,-39.375,1.42213,3.435129,-178.958,0.9994358,-0.03008191,-0.01213149,-0.008716425
16875,-0.005220118,-0.0004012351,-0.01141393,-0.04849883,-0.01128901,-0.082676,-1.340801,-0.3160459,-9.399971,50.125,39.5,-36.75,1.921301,2.987603,-178.509,0.9994407,-0.026281,-0.01641947,-0.01256784
16886,-0.00602795,-0.0005343045,-0.01256865,-0.06200269,-0.01021333,-0.08862756,-1.460515,-0.4980117,-9.23716,43.5,42.75,-34.375,2.356011,2.555375,-178.1595,0.9994186,-0.02262051,-0.02019282,-0.01559482
16898,-0.007009379,-0.0006807138,-0.01382303,-0.07453699,-0.01111941,-0.09526695,-1.297704,-0.3878745,-9.208428,37.25,47.25,-33,2.770287,2.043972,-177.9198,0.9993919,-0.01826665,-0.02384146,-0.01771301
16909,-0.008053565,-0.0008858065,-0.01514097,-0.08108298,-0.01592582,-0.1023404,-0.7709605,-0.1005601,-9.198852,40.375,50.75,-32.25,3.159243,1.427861,-177.7014,0.9993482,-0.01300574,-0.0273086,-0.01970509
16922,-0.009270367,-0.001188813,-0.01669405,-0.08562392,-0.02132199,-0.1092868,-0.4644917,-0.1436572,-9.270679,47.375,53.25,-32.5,3.58712,0.673154,-177.365,0.9992329,-0.006589537,-0.0311546,-0.0227973
16933,-0.01057803,-0.001568281,-0.01813327,-0.1015664,-0.02947319,-0.1117839,-1.302492,-0.02394287,-9.577148,50.875,58.375,-32.75,3.971146,0.06570341,-177.0471,0.9990681,-0.001465585,-0.03462157,-0.02573104
16944,-0.01215718,-0.002113336,-0.01957527,-0.122291,-0.04220984,-0.1116708,-1.58023,0.225063,-9.816577,55.125,68.5,-31.5,4.329415,-0.624073,-176.7225,0.998857,0.004359742,-0.0379119,-0.02878245
16956,-0.01392457,-0.002820284,-0.02104547,-0.1358178,-0.05432624,-0.1129796,-0.8667319,0.1532344,-9.716018,56.875,77.125,-29.875,4.658276,-1.518662,-176.3758,0.9985695,0.01194988,-0.04103476,-0.03213107
16967,-0.01588117,-0.003654485,-0.02257749,-0.1519923,-0.06480243,-0.11901,-0.9385605,-0.0191543,-9.361663,54.625,81.875,-26.875,4.936354,-2.425034,-176.048,0.9982232,0.01964405,-0.04375822,-0.03535223
16979,-0.01827331,-0.004682725,-0.02429067,-0.1823967,-0.07840181,-0.1306278,-1.91543,0.07661719,-9.026463,54.625,84,-23.375,5.168655,-3.190196,-175.7378,0.9978585,0.02611251,-0.04607515,-0.03838805
16990,-0.02103086,-0.005880119,-0.02612836,-0.2127089,-0.092363,-0.1417527,-1.81487,0.06704004,-9.083925,49.875,87,-15.25,5.286461,-3.976294,-175.4954,0.9975006,0.03281777,-0.04741532,-0.04083325
17002,-0.02413619,-0.007239142,-0.02812757,-0.2377372,-0.104044,-0.1530557,-1.240241,-0.1005601,-9.055194,42.125,89.375,-5,5.264642,-4.857875,-175.3234,0.9971368,0.04042817,-0.04757431,-0.04266496
17013,-0.02751192,-0.008689955,-0.0302449,-0.2614819,-0.112379,-0.1640073,-0.9960235,-0.3687202,-9.059982,40.25,91.375,3.5,5.125556,-5.761935,-175.1277,0.99674,0.04826733,-0.04675138,-0.04465507
17025,-0.03125365,-0.0102216,-0.03249117,-0.2868985,-0.1174394,-0.172233,-0.9050406,-0.6895547,-9.275469,40.875,95.125,7.625,4.918434,-6.713594,-174.8678,0.9962523,0.05652329,-0.04541082,-0.04716357
17036,-0.0353237,-0.01182442,-0.03483054,-0.3128159,-0.1231899,-0.1797997,-0.7805376,-0.675189,-9.347297,39,100.5,10.5,4.663368,-7.724329,-174.6331,0.9956815,0.06532646,-0.04369827,-0.04940988
17048,-0.03978164,-0.01359397,-0.03727953,-0.3396783,-0.1348326,-0.1866037,-0.6799775,-0.2825259,-9.476588,47,106.375,10.75,4.398754,-8.81041,-174.3546,0.9949573,0.07477558,-0.04199689,-0.05200804
17059,-0.04445238,-0.01548389,-0.03971639,-0.3657015,-0.1479738,-0.1907973,-0.4597031,-0.2346401,-9.687285,65.125,111,8.375,4.160381,-9.935128,-173.8652,0.9939928,0.08447567,-0.04074059,-0.05641334
17070,-0.04957141,-0.01753778,-0.04226603,-0.3891917,-0.1561538,-0.1938442,0.05267432,-0.7182862,-9.687285,67.125,117,7.25,3.897223,-11.21954,-173.2652,0.9927226,0.09553963,-0.03952041,-0.06174183
17082,-0.05489937,-0.01963921,-0.04485821,-0.409339,-0.1614493,-0.1991538,0.4932232,-0.9481377,-9.428702,50.5,122,7.125,3.611403,-12.58841,-172.8534,0.9913317,0.1074142,-0.038089,-0.06536718
17093,-0.06073878,-0.02188479,-0.047669,-0.428643,-0.1648378,-0.2063263,0.8475776,-1.110949,-9.241948,36.5,124.25,2.75,3.353431,-14.08026,-172.5965,0.9897344,0.1203815,-0.03688851,-0.06762698
17106,-0.06667727,-0.02409501,-0.05050438,-0.4473781,-0.1665073,-0.2136041,1.091795,-1.245029,-9.174909,28.5,124.25,-4.375,3.18736,-15.5461,-172.4522,0.9880331,0.1330903,-0.0363947,-0.06894288
17117,-0.07278527,-0.0262753,-0.05338857,-0.4660815,-0.166371,-0.2200831,1.336012,-1.383898,-9.179697,18.625,125,-9.875,3.087405,-17.01227,-172.4355,0.9862249,0.1457821,-0.0363387,-0.06919138
17129,-0.07908349,-0.02842559,-0.05631261,-0.4854866,-0.1657516,-0.2253945,1.541921,-1.403052,-9.241948,4.75,128.5,-14.875,3.050097,-18.50981,-172.6146,0.984309,0.1587446,-0.0365674,-0.06781549
17141,-0.08648524,-0.03087612,-0.0596944,-0.5113831,-0.1693051,-0.2336457,1.474881,-1.072641,-9.189274,4.75,134,-21.125,3.116754,-20.21926,-172.8981,0.9819246,0.1734721,-0.03758953,-0.06571624
17152,-0.09323937,-0.03300935,-0.06270254,-0.53865,-0.170128,-0.2399023,1.403052,-1.268972,-9.328143,10.5,143.25,-28.5,3.253639,-21.76992,-173.0694,0.9794937,0.1867313,-0.03923726,-0.06468358
17164,-0.1006746,-0.03521765,-0.06586188,-0.5718524,-0.1698434,-0.2429889,1.455727,-1.383898,-9.658554,5.375,158.125,-33.875,3.448529,-23.53851,-173.3243,0.9765164,0.2018174,-0.0412776,-0.06310104
17175,-0.1085369,-0.0375006,-0.06904425,-0.6066107,-0.1761397,-0.2455347,1.676001,-0.8380005,-9.768692,2.125,180.5,-37.25,3.702775,-25.57947,-173.7219,0.9728259,0.219201,-0.0435743,-0.06051406
17187,-0.1167094,-0.03996356,-0.07226056,-0.6336766,-0.1909716,-0.2493838,2.504424,-0.05267432,-9.428702,16.75,200.875,-38.375,4.014394,-27.95352,-174.0566,0.9680558,0.2392935,-0.04645615,-0.05872507
17198,-0.1167094,-0.03996356,-0.07226056,0,0,0,3.768608,0.1245029,-9.174909,49,216.75,-42.375,4.395782,-30.7115,-174.026,0.9617525,0.2623301,-0.05072073,-0.06035429
17210,-0.1167094,-0.03996356,-0.07226056,0,0,0,5.353626,-0.07182861,-9.026463,96.125,228.75,-50.375,4.887577,-33.99382,-173.3575,0.9531239,0.2892013,-0.05762833,-0.06779703
17222,-0.1167094,-0.03996356,-0.07226056,0,0,0,5.947409,-0.5267432,-8.719994,138.875,229.125,-61.625,5.448789,-37.07062,-172.2155,0.9438462,0.3137383,-0.06651617,-0.07936125
17233,-0.1167094,-0.03996356,-0.07226056,0,0,0,5.449398,-1.154046,-8.461411,177.75,219.625,-76,6.150065,-39.92999,-170.6277,0.9339143,0.3356954,-0.07810623,-0.0949319
17245,-0.1169847,-0.040091,-0.0724657,-0.02105697,-0.009749974,-0.0156947,4.525203,-0.9912349,-7.441444,225.25,206.25,-92.75,7.126641,-42.58648,-168.6392,0.9231324,0.3549278,-0.09349841,-0.1145031
17257,-0.1177861,-0.04029004,-0.0732064,-0.05724744,-0.01421796,-0.05291075,3.184402,-1.738253,-6.675272,243.25,201.625,-107.75,8.24988,-45.19614,-166.2535,0.910906,0.3725671,-0.1117988,-0.1376412
17270,-0.1194266,-0.040604,-0.07483804,-0.1109443,-0.02123168,-0.1103427,1.88191,-1.944161,-6.416689,181.625,214,-105.625,9.206233,-47.83616,-164.5171,0.8984903,0.3905572,-0.1271294,-0.154979
17283,-0.1217617,-0.04100053,-0.07738772,-0.1651895,-0.02805167,-0.1803676,1.225875,-1.905853,-5.784598,92.75,231.625,-92,9.668219,-50.39685,-163.8074,0.8875803,0.4092725,-0.1352405,-0.1625028
17295,-0.1248586,-0.04140339,-0.0809983,-0.2183837,-0.02840859,-0.254607,1.383898,-2.197956,-5.324894,-7.25,247.75,-74.25,9.504315,-53.11361,-163.9762,0.8775532,0.4308704,-0.1354813,-0.160922
17307,-0.1286014,-0.04178972,-0.08543497,-0.2696311,-0.02783127,-0.3196221,2.164436,-2.130916,-5.545169,-119.125,265.125,-55.5,8.902624,-56.0202,-165.3588,0.8683827,0.4556631,-0.1276223,-0.1483079
17319,-0.1326548,-0.04215578,-0.09025455,-0.3150058,-0.02844727,-0.3745393,2.892299,-1.757407,-5.631363,-198.25,280.25,-42.5,8.192533,-58.9361,-167.5517,0.8594773,0.4810463,-0.1150237,-0.1290847
17330,-0.1373827,-0.04259819,-0.09586311,-0.3598038,-0.03366904,-0.4268316,3.505236,-1.039121,-5.688826,-255,298.625,-31.25,7.541319,-62.18048,-170.6399,0.8488816,0.5089567,-0.09817018,-0.1035658
17342,-0.1425685,-0.04315392,-0.1019268,-0.3997989,-0.04284392,-0.467477,4.745477,-0.292103,-5.640941,-281.625,316.25,-21.375,7.152747,-65.73915,-174.2793,0.8355387,0.5383824,-0.07935748,-0.07564359
17353,-0.1482614,-0.04379909,-0.1083702,-0.4373829,-0.04956766,-0.495041,6.143741,-0.05267432,-5.458975,-293.75,330.5,-9.75,6.915908,-69.60843,-178.1977,0.8189692,0.5688856,-0.05848052,-0.04731331
17365,-0.1545055,-0.04446106,-0.1150407,-0.4818675,-0.05108586,-0.5147735,6.938644,-0.1005601,-5.669672,-307,343,1.75,6.906648,-73.58487,177.5526,0.7999445,0.5987242,-0.03545868,-0.01899653
17376,-0.1614657,-0.04511608,-0.1220143,-0.5341725,-0.05027015,-0.5352007,7.158918,0.1149258,-5.717558,-322.875,352.5,15.875,7.505507,-77.62752,172.4938,0.7785348,0.6274436,-0.009949503,0.009957688
17387,-0.1691463,-0.04575772,-0.1292551,-0.5903607,-0.04931885,-0.5565532,7.427079,0.5075889,-5.468552,-324.625,354.625,30.25,9.837338,-81.63891,165.7058,0.7551008,0.6542833,0.01664642,0.03819682
17399,-0.1777135,-0.04641611,-0.1367944,-0.6568359,-0.05047837,-0.5780376,7.714393,1.110949,-5.645729,-299.75,350.375,38.75,19.0436,-85.41234,152.3727,0.7305456,0.6785722,0.04166456,0.064086
17410,-0.1871305,-0.04712117,-0.1444315,-0.7319365,-0.05480056,-0.5935903,8.490142,1.790927,-5.736712,-246.5,342.625,44.625,70.56227,-88.09351,97.47884,0.7059003,0.7004253,0.06220697,0.085085
17422,-0.1978037,-0.04785204,-0.1522742,-0.8150532,-0.05581252,-0.5989039,9.682497,1.88191,-5.612209,-184.375,330.625,46.125,142.9791,-86.28227,22.45039,0.6811119,0.7209466,0.07824402,0.1009982
17433,-0.2095733,-0.04853457,-0.1600675,-0.9061925,-0.05255101,-0.6000398,10.40557,1.853178,-5.679249,-110.875,313.625,43.125,156.1432,-83.16161,7.649444,0.6582112,0.7393886,0.08805019,0.1109494
17445,-0.2228299,-0.04914875,-0.1680624,-1.006345,-0.04662457,-0.6069171,10.38163,1.853178,-5.770232,-42.375,298.5,37.75,160.0623,-80.12558,2.968796,0.6371284,0.7564181,0.09185614,0.1160246
17456,-0.2369693,-0.04965127,-0.1760573,-1.107846,-0.03937279,-0.6264085,9.749537,1.795715,-5.851638,24.5,286.5,30.25,161.5058,-77.40761,1.637201,0.6188971,0.7716042,0.08946589,0.1165729
17468,-0.2527877,-0.05007293,-0.1846279,-1.213067,-0.03233601,-0.657258,9.222795,1.743041,-5.755867,91.5,276.25,21,162.0626,-74.82842,2.066315,0.6022798,0.7861332,0.08055564,0.11298
17479,-0.270096,-0.05035829,-0.1936203,-1.320133,-0.02176512,-0.6858642,9.687285,1.355167,-5.502072,138.875,264.25,13.25,162.4979,-72.40217,3.242543,0.5869853,0.7997782,0.06725704,0.1062056
17491,-0.2899349,-0.05032239,-0.2034922,-1.437815,0.002602268,-0.715463,10.14699,0.3160459,-5.664884,141.75,246.5,13,163.4471,-70.15113,4.029338,0.5724615,0.8122787,0.0541989,0.09774262
17503,-0.3101423,-0.04988466,-0.2133196,-1.553217,0.03364532,-0.7553667,9.648977,-0.3830859,-6.105432,78.625,230.125,24.75,164.9051,-68.34785,3.411767,0.5598286,0.8220014,0.04933068,0.092044
17514,-0.3322009,-0.04908739,-0.2239356,-1.672498,0.06044999,-0.8049131,9.213217,-0.08140577,-6.196415,-0.875,215.375,42.875,166.6632,-66.76531,1.50663,0.5477334,0.8301338,0.05298444,0.08977063
17526,-0.3553579,-0.0480799,-0.2349994,-1.792754,0.07799733,-0.8565344,9.189274,0.6033604,-6.182049,-33.5,199.875,53.75,168.2496,-65.41561,-0.6131747,0.5370481,0.8367094,0.0597897,0.08900594
17538,-0.3827214,-0.04675756,-0.2479943,-1.928637,0.09320074,-0.9159034,9.246737,0.900252,-6.239512,-25.5,181,57,169.7745,-64.19616,-2.608753,0.5274003,0.8424727,0.06654864,0.08752201
17549,-0.4089794,-0.04540985,-0.2604134,-2.053496,0.1053969,-0.9712313,9.299411,0.9960235,-6.292187,-1.75,167.75,55.25,170.9347,-63.26839,-3.90572,0.5202572,0.8468459,0.0703482,0.085063
17561,-0.4374009,-0.04389462,-0.2738003,-2.181405,0.1162974,-1.027468,9.419126,1.029544,-6.182049,22.5,157.625,52.875,171.9611,-62.44917,-4.769413,0.5141771,0.8507878,0.0717993,0.08140585
17572,-0.467397,-0.04227541,-0.2877631,-2.306856,0.1245255,-1.073816,10.07037,1.043909,-5.535592,46.5,145.875,50.25,172.8637,-61.73208,-5.206595,0.5090832,0.8543708,0.07080787,0.07662293
17584,-0.4986682,-0.0405952,-0.3019952,-2.428833,0.130502,-1.105405,11.00893,0.9864463,-4.740688,67.25,128.5,48.25,173.714,-61.17341,-5.331711,0.5053312,0.8573374,0.06784793,0.07077933
17595,-0.5327953,-0.03872849,-0.3170754,-2.554233,0.139713,-1.128669,11.62666,0.5554746,-4.324082,80.75,103.875,46.5,174.6867,-60.88154,-5.381301,0.503669,0.8591749,0.06388648,0.06367549
17607,-0.5668581,-0.03675394,-0.3317568,-2.673682,0.1549883,-1.152389,11.53568,-0.09577148,-4.472528,68.875,83.125,46.625,175.8029,-60.87685,-5.781713,0.5040359,0.8595638,0.06198103,0.05706432
17618,-0.6032629,-0.03448976,-0.3471844,-2.796286,0.1739133,-1.185005,10.97541,-0.4357603,-4.913077,29.625,69.625,50.75,177.1768,-61.07545,-6.932654,0.5057393,0.8587014,0.06455359,0.05189016
17630,-0.6417044,-0.03200578,-0.363316,-2.918872,0.1886086,-1.224875,10.42473,-0.1628115,-5.080678,-16.625,65.25,55.625,178.6587,-61.33755,-8.781484,0.5077716,0.8570903,0.07179794,0.04908543
17641,-0.6806996,-0.02952486,-0.3795812,-3.036058,0.1931579,-1.266362,10.12305,0.5267432,-4.946597,-24.375,62.625,55.5,179.9364,-61.61451,-10.50726,0.5099564,0.8552608,0.07892763,0.04736985
17652,-0.7214803,-0.02710513,-0.3965542,-3.150059,0.1869094,-1.311064,9.749537,1.259395,-4.692803,17.75,58.25,47.75,-179.1672,-61.95638,-11.32028,0.5128033,0.8535296,0.08083478,0.04456268
17664,-0.7649661,-0.02480066,-0.4146439,-3.262013,0.1728656,-1.356964,9.53884,1.656847,-4.338449,90.875,51.875,36.5,-178.6579,-62.39888,-10.79285,0.5166294,0.8520905,0.07439846,0.03874043
17675,-0.8073041,-0.02279372,-0.4321728,-3.363097,0.15942,-1.392403,9.893194,1.441361,-3.859591,152.25,43.625,27.875,-178.3311,-62.8851,-9.393244,0.520854,0.8508308,0.06227798,0.03032418
17687,-0.8526634,-0.02076694,-0.4506924,-3.464389,0.1547987,-1.414462,10.72162,0.4740689,-3.328059,181.625,30.625,21.375,-177.8702,-63.48651,-7.712145,0.5258949,0.849,0.04742521,0.01960624
17698,-0.8998373,-0.01858274,-0.4698434,-3.555996,0.1646465,-1.443619,9.826155,-0.7853262,-3.050322,162.375,13,15.5,-177.1281,-64.30958,-6.587268,0.5323815,0.8457157,0.03531047,0.009386797
17710,-0.9493076,-0.01615803,-0.4897456,-3.650946,0.1789458,-1.468792,10.10868,-1.211509,-3.179613,106.125,0.125,12.875,-176.2487,-65.3102,-6.334651,0.5399904,0.8411731,0.02886006,0.002282394
17722,-0.9983402,-0.01370995,-0.5095529,-3.738667,0.1866621,-1.510283,8.729571,-0.7374405,-3.581854,30.125,-4.375,16.125,-175.3074,-66.41003,-7.1547,0.5482485,0.8357849,0.02978789,-4.6045E-05
17734,-1.049351,-0.01124897,-0.5303102,-3.824443,0.1845092,-1.556253,8.322542,0.02394287,-3.586642,-21.75,-2.875,20.875,-174.3929,-67.50912,-8.600975,0.5564582,0.8301302,0.03517122,0.001064072
17745,-1.099295,-0.009019972,-0.5507109,-3.90376,0.1742222,-1.594547,8.619433,0.6512461,-3.313694,-22.25,-3.875,18.5,-173.7865,-68.52502,-9.713435,0.563932,0.8248723,0.03946692,0.002963718
17758,-1.158444,-0.006700832,-0.5748722,-3.995186,0.1566457,-1.631971,8.988154,1.024755,-3.289751,23.875,-8,7.25,-173.6501,-69.7508,-9.77557,0.5727113,0.8188578,0.03824062,0.003372094
17770,-1.213286,-0.00475243,-0.5972091,-4.074397,0.144755,-1.659504,9.270679,0.6847661,-3.05511,55.875,-11,0.25,-173.6566,-70.85269,-9.297514,0.580518,0.8135359,0.03397517,0.001970942
17781,-1.265997,-0.002917271,-0.618581,-4.146274,0.144353,-1.681104,9.443069,-0.191543,-2.935396,27.125,-10.375,2,-173.2218,-71.82238,-9.669321,0.5874569,0.8085564,0.03359163,0.001637149
17793,-1.320747,-0.001042698,-0.6407152,-4.215763,0.1443423,-1.704332,9.218005,-0.2011201,-2.830047,-15.625,-7.5,1.375,-172.7697,-72.75107,-10.61387,0.5940533,0.8035595,0.03708521,0.00419474
17804,-1.375893,0.0007436827,-0.6631007,-4.281802,0.1387049,-1.738137,8.322542,0.3208345,-2.964128,-11.125,-4,-6.125,-172.8791,-73.69141,-10.94006,0.6005168,0.7986213,0.03906658,0.007581856
17815,-1.433041,0.002517114,-0.6865844,-4.341585,0.1347285,-1.78407,7.283422,0.2442173,-2.758219,10.25,3.125,-14.25,-173.4098,-74.58302,-10.59237,0.6065075,0.7940716,0.03863654,0.01029933
17827,-1.489849,0.004263571,-0.7102683,-4.387071,0.134872,-1.829013,7.000896,-0.09577148,-1.862755,15.375,8.25,-18,-174.0575,-75.24873,-10.06937,0.6109121,0.7906906,0.03789206,0.01260688
17838,-1.547362,0.00609298,-0.7345241,-4.420987,0.1406264,-1.864546,7.470176,-0.5937832,-0.8954634,-8.625,8.25,-14.375,-174.3105,-75.68956,-10.253,0.6138192,0.7882684,0.04014701,0.01571897
17850,-1.60503,0.007992544,-0.7590482,-4.453488,0.1466958,-1.893899,7.891571,-0.6320918,-0.7518061,-45.625,8.75,-6.125,-174.1507,-76.05872,-11.31127,0.6162286,0.7859374,0.04624564,0.02063938
17861,-1.663666,0.009953687,-0.7840772,-4.494515,0.1503252,-1.918518,8.408736,-0.3830859,-1.316858,-85,17,6.25,-173.5341,-76.37493,-13.32562,0.6182265,0.7834868,0.05642008,0.02759016
17873,-1.722595,0.01194789,-0.8092318,-4.542157,0.1537075,-1.938846,8.83492,-0.292103,-1.800504,-102.875,26.5,12.25,-172.7258,-76.60239,-15.75152,0.6195342,0.781183,0.06836933,0.03544377
17884,-1.782838,0.01398579,-0.8349501,-4.594126,0.1554111,-1.961279,8.758303,-0.06225147,-2.126127,-84.75,35,7,-172.4388,-76.79224,-17.44795,0.6204109,0.7791938,0.07813551,0.04292093
17895,-1.842257,0.01599208,-0.8603563,-4.643142,0.156778,-1.985324,8.561971,0,-2.044721,-45.75,42.5,-1.875,-172.8347,-76.91365,-17.94574,0.620745,0.7780439,0.08350795,0.04847569
17907,-1.903776,0.01807044,-0.886742,-4.688251,0.158387,-2.010802,8.413525,-0.03830859,-1.68079,-4.25,47.75,-9.5,-173.814,-76.94989,-17.35102,0.6205293,0.7778594,0.08473006,0.05195234
17918,-1.965525,0.0201542,-0.9133368,-4.73212,0.1596877,-2.038067,8.255502,0.0191543,-1.623327,36,51.5,-15.5,-175.2182,-76.95541,-15.81191,0.6202516,0.7783048,0.08187536,0.0531612
17930,-2.031093,0.02239112,-0.941732,-4.779707,0.1630648,-2.069925,8.054382,-0.06225147,-1.786138,58.375,57,-16.375,-176.6824,-76.91088,-13.90258,0.6198189,0.7791892,0.07686421,0.05273306
17942,-2.094476,0.02459564,-0.9693325,-4.824709,0.1678098,-2.100973,8.011285,-0.1676001,-1.738253,60.25,66.625,-11.375,-177.7885,-76.71156,-12.34007,0.6184596,0.7807721,0.0723611,0.05163815
17954,-2.159132,0.02684675,-0.9975088,-4.86869,0.169511,-2.121711,8.777456,0.01436572,-1.345589,57.375,72.25,-5.25,-178.7596,-76.34193,-10.92938,0.6159756,0.7831883,0.06820542,0.0503802
17965,-2.222248,0.02905319,-1.024791,-4.914455,0.1718017,-2.124312,10.16614,-0.05746289,-1.206721,62.125,70.75,0.75,-179.2708,-75.94639,-9.920444,0.6134096,0.7856693,0.06425713,0.04820174
17978,-2.295959,0.03178982,-1.056145,-4.977108,0.184782,-2.117084,11.00414,-0.7134976,-1.723887,55.5,65.375,7.125,-178.9374,-75.60227,-9.776224,0.6112912,0.7877198,0.06166247,0.04492475
17990,-2.362683,0.03443537,-1.084163,-5.036925,0.1997094,-2.115023,10.75514,-0.9529263,-2.078241,24.125,63.125,14.5,-178.0779,-75.35562,-10.6172,0.6097414,0.7889033,0.06300779,0.04332418
18001,-2.428474,0.03719132,-1.111543,-5.094173,0.213392,-2.119982,10.21403,-0.9194063,-2.097396,-13.125,63.625,23.5,-176.8351,-75.10188,-12.31161,0.6080688,0.7897449,0.0682491,0.043562
18013,-2.495424,0.04010819,-1.13928,-5.149981,0.224374,-2.133642,9.53884,-0.7326519,-2.073453,-40.375,66.5,30.875,-175.4126,-74.80328,-14.53434,0.6060584,0.7904595,0.07629399,0.04523445
18024,-2.562426,0.04307564,-1.167016,-5.202406,0.23041,-2.153549,9.016886,-0.4022402,-1.886698,-57,71,37.5,-174.055,-74.42525,-16.88993,0.6034775,0.7913074,0.08577923,0.04784645
18036,-2.631364,0.04611728,-1.195559,-5.251623,0.2317087,-2.174434,8.906748,-0.1388687,-1.465304,-60.25,75.375,43.375,-172.8338,-73.9145,-19.16231,0.5999857,0.7926516,0.09569325,0.0506306
18047,-2.700032,0.04910589,-1.223994,-5.299283,0.2306386,-2.194357,8.954634,-0.03352002,-1.278549,-52,77.75,47.25,-171.7525,-73.34386,-21.17206,0.5961438,0.794266,0.1047513,0.05273875
18059,-2.76987,0.05211509,-1.252945,-5.349077,0.230484,-2.217485,8.777456,-0.1101372,-1.412629,-42.75,83.5,51.625,-170.6619,-72.6993,-23.08289,0.5919171,0.7961639,0.113339,0.0539593
18070,-2.839579,0.05509663,-1.281861,-5.39757,0.2308585,-2.238899,8.878016,-0.2490059,-1.245029,-37.25,92.75,55.75,-169.7103,-71.9034,-24.78288,0.5866932,0.7987666,0.1215914,0.05457729
18081,-2.91066,0.05808032,-1.311328,-5.440511,0.2283731,-2.255413,9.127023,-0.2873144,-0.5219546,-31.875,98.25,58.75,-169.0299,-70.92464,-26.14889,0.5801522,0.8022952,0.1293912,0.05480664
18093,-2.98193,0.06098259,-1.340884,-5.486578,0.2234236,-2.275306,8.978577,-0.08619434,-0.6704004,-22.75,98.25,59.75,-168.4959,-70.00069,-27.24656,0.5739741,0.805634,0.1360992,0.05463102
18104,-3.054296,0.06384263,-1.370895,-5.536351,0.2188082,-2.295986,9.026463,-0.1197144,-0.8236348,1.625,96.5,56.875,-168.0713,-69.14574,-27.93097,0.5683484,0.8089711,0.1404217,0.0531758
18116,-3.125878,0.06659856,-1.400482,-5.584498,0.2150049,-2.308263,9.591515,-0.3591431,-0.4884346,41.125,90.625,46.25,-167.925,-68.39394,-27.84499,0.5634339,0.8125824,0.1405279,0.05004207
18127,-3.200035,0.06940785,-1.430901,-5.638025,0.2135851,-2.312674,10.27149,-0.6129375,-0.5267432,91.375,78.5,27.25,-168.0832,-67.88325,-26.8209,0.5601627,0.8160691,0.1349877,0.04502521
18139,-3.274211,0.07224045,-1.46102,-5.6984,0.2176077,-2.313864,10.67852,-0.9529263,-1.005601,120,66,11.75,-168.3107,-67.656,-25.39562,0.5588574,0.8186439,0.1263456,0.03920812
18150,-3.353415,0.07535724,-1.492844,-5.765746,0.2268904,-2.316608,10.64979,-1.259395,-1.340801,113.875,54.25,4.875,-168.398,-67.62601,-24.14021,0.5589553,0.8200908,0.1178474,0.03364839
18162,-3.43023,0.07849208,-1.523489,-5.828097,0.2378484,-2.325133,10.15657,-1.398264,-1.379109,71.75,45.375,8.375,-168.136,-67.68501,-23.82201,0.5597196,0.8202163,0.1141887,0.0303366
18174,-3.50722,0.08166845,-1.554156,-5.884289,0.2427672,-2.343855,9.299411,-0.9289834,-1.182778,24.875,38.375,15,-167.6924,-67.8044,-24.26811,0.5608752,0.8193403,0.1150017,0.02958316
18185,-3.584245,0.08474049,-1.584949,-5.936885,0.2367842,-2.373454,8.485353,-0.02394287,-1.110949,0.75,31.25,19.25,-167.3341,-68.04234,-24.90016,0.5627186,0.8177066,0.1173316,0.03061077
18198,-3.673018,0.08798976,-1.620606,-5.999365,0.2195898,-2.409768,8.432679,0.7374405,-1.230664,29.625,23.5,15.125,-167.2715,-68.51204,-24.82629,0.5660397,0.8156468,0.1156384,0.03077519
18210,-3.752656,0.09069128,-1.652674,-6.055729,0.205423,-2.438422,8.691262,0.6464576,-1.297704,85.625,16.5,4.875,-167.407,-69.05582,-23.85359,0.5698993,0.8140497,0.1084091,0.02802641
18221,-3.832012,0.09327646,-1.684624,-6.109913,0.1990437,-2.459983,9.079137,0,-1.230664,139,9.25,-7.875,-167.6354,-69.67714,-22.14211,0.5743474,0.8126195,0.09631597,0.02231535
18233,-3.912526,0.09590905,-1.716956,-6.16398,0.2015456,-2.475282,9.467011,-0.7230747,-1.245029,155.5,3.875,-16.625,-167.8363,-70.34696,-20.26448,0.5791138,0.8108715,0.08290964,0.01551599
18244,-3.99246,0.09861571,-1.748941,-6.217195,0.2105198,-2.487696,9.615458,-1.235452,-1.336012,135,-0.75,-19.875,-167.8944,-71.04117,-18.83204,0.5840126,0.8084872,0.07197677,0.009855983
18256,-4.074924,0.1014864,-1.781847,-6.270511,0.2182893,-2.50222,9.452645,-1.106161,-1.383898,102.125,-4.75,-19,-167.9118,-71.79609,-17.83082,0.5892593,0.8053939,0.06384962,0.006100175
18267,-4.156884,0.104335,-1.814509,-6.320688,0.2196785,-2.51883,9.246737,-0.5937832,-1.321646,81.75,-9.5,-18.75,-168.1003,-72.6012,-16.91767,0.5947157,0.8018879,0.05721145,0.003985231
18279,-4.239655,0.1071463,-1.847471,-6.367461,0.2162706,-2.535699,9.160542,-0.2011201,-1.154046,87,-14.625,-21.375,-168.5886,-73.45805,-15.62416,0.6003763,0.7981821,0.04949654,0.00194274
18290,-4.32269,0.1099152,-1.880525,-6.410479,0.2137664,-2.551838,9.117445,-0.2442173,-1.005601,99.75,-20.5,-24.625,-169.2128,-74.35015,-14.03367,0.606221,0.7942622,0.04053373,-0.000845633
18302,-4.407088,0.112734,-1.914073,-6.452951,0.2155218,-2.565078,9.294622,-0.5506861,-1.029544,98.125,-27,-24.875,-169.6877,-75.29742,-12.60652,0.6124815,0.7898265,0.032015,-0.003935362
18313,-4.491333,0.1156211,-1.947451,-6.495914,0.2226104,-2.573683,9.615458,-0.9529263,-1.173201,78.75,-32.5,-22.75,-169.8134,-76.27678,-11.78774,0.6190431,0.7849044,0.0259097,-0.006291951
18325,-4.576871,0.11865,-1.981234,-6.538055,0.231513,-2.582149,9.586726,-1.067852,-1.249818,42.625,-37.375,-18.625,-169.581,-77.29918,-11.78472,0.6259693,0.7794669,0.02343537,-0.006684882
18336,-4.661202,0.1217078,-2.014497,-6.57706,0.2384809,-2.594213,9.246737,-0.900252,-1.302492,5.375,-40,-13.125,-169.0153,-78.31296,-12.58345,0.6328893,0.7738387,0.02451619,-0.004888792
18347,-4.747637,0.1248875,-2.048582,-6.613258,0.2432855,-2.607919,9.074348,-0.7039204,-1.221087,-28.375,-41.125,-7.75,-168.0799,-79.31586,-14.18398,0.6397659,0.7680304,0.02877555,-0.0009593749
18359,-4.834578,0.1281115,-2.082834,-6.647816,0.2465214,-2.619027,9.232371,-0.5698403,-1.225875,-44.25,-42,-6.375,-166.9359,-80.29901,-16.19479,0.6464598,0.7621633,0.03434773,0.004145692
18371,-4.926872,0.1315848,-2.1191,-6.684161,0.2515425,-2.626465,9.510109,-0.6656118,-1.359955,-49.875,-42.875,-8,-165.4129,-81.33102,-18.71154,0.6534257,0.7558296,0.04068422,0.01006027
18382,-5.014537,0.134923,-2.153458,0,0,0,9.60588,-0.6129375,-1.158835,-55.75,-43,-9.375,-163.8248,-82.25164,-21.31374,0.6595396,0.7500239,0.04697794,0.01627238
18394,-5.014852,0.1349357,-2.153553,0,0,0,9.37124,-0.3639317,-0.8619434,-56.25,-44.5,-10.5,-162.222,-83.14362,-23.93824,0.6653094,0.7443342,0.05298134,0.02287081
18406,-5.015143,0.1349094,-2.153689,0,0,0,9.117445,-0.09577148,-0.8619434,-45.375,-46.5,-12.875,-160.596,-84.06509,-26.44379,0.6711116,0.7385415,0.05761299,0.02909632
18418,-5.015498,0.1349185,-2.153829,0,0,0,9.222795,-0.2442173,-1.029544,-35.25,-47,-13.5,-157.6554,-85.06918,-30.21116,0.6775143,0.7320623,0.06192532,0.03499224
18430,-5.015763,0.1349393,-2.15391,0,0,0,9.380817,-0.3064688,-1.043909,-34.875,-46,-11.75,-153.4946,-85.8995,-35.11131,0.6829343,0.7263903,0.06597675,0.04006317
18442,-5.01601,0.1349211,-2.153982,0,0,0,9.419126,-0.05746289,-1.043909,-26,-45.25,-10.875,-147.8457,-86.6814,-41.37884,0.6881194,0.7209234,0.06909191,0.0445812
18453,-5.016231,0.1348836,-2.154047,0,0,0,9.428702,0.08619434,-1.053486,-1.875,-44.625,-12.125,-139.9235,-87.40369,-49.59763,0.6931267,0.7158465,0.06996386,0.04737292
18464,-5.016405,0.1348798,-2.1541,0,0,0,9.476588,-0.1292915,-0.933772,22.625,-43.875,-12.875,-127.2914,-87.98928,-62.21042,0.6978951,0.7112427,0.06901517,0.04809619
18476,-5.016551,0.134935,-2.15415,0,0,0,9.490954,-0.4788574,-0.8858863,24.25,-43.25,-9.5,-106.2706,-88.30869,-83.18952,0.7025341,0.7067102,0.06852499,0.04807272
18487,-5.016684,0.1350398,-2.154199,0,0,0,9.452645,-0.8140576,-1.053486,2.125,-40.625,-3,-84.0195,-88.21194,-105.6812,0.7065618,0.7024156,0.07061841,0.04894708
18499,-5.016822,0.1351788,-2.154241,0,0,0,9.476588,-1.000812,-1.197144,-27.5,-36.25,3.5,-68.90112,-87.81108,-121.4324,0.7100819,0.6981284,0.07577901,0.05155637
18510,-5.016948,0.1352915,-2.154285,0,0,0,9.4718,-0.8571548,-1.182778,-49.125,-30.625,5.875,-60.56388,-87.35336,-130.6959,0.7128905,0.6941262,0.08271578,0.05598315
18522,-5.017048,0.1353335,-2.154343,0,0,0,9.380817,-0.483646,-1.067852,-47.875,-26.125,3,-54.84053,-86.99534,-137.3074,0.7151152,0.690676,0.088736,0.06085214
18533,-5.017127,0.1353173,-2.154432,0,0,0,9.213217,-0.1436572,-0.9146177,-29.625,-22.375,-2.25,-49.64212,-86.74797,-143.1624,0.7170317,0.6877965,0.09256122,0.06506924
18545,-5.017193,0.1352706,-2.154556,0,0,0,9.059982,0.03352002,-0.8284234,-1.75,-18.875,-8.25,-44.20833,-86.58104,-148.9017,0.7188725,0.6854706,0.0935716,0.06779908
18556,-5.017259,0.135239,-2.154668,0,0,0,9.036039,0.01436572,-0.9194063,23.375,-15.375,-13.125,-39.08644,-86.45492,-153.9947,0.7206056,0.6837311,0.09227248,0.06873932
18567,-5.017329,0.1352399,-2.154751,0,0,0,9.246737,-0.158023,-1.010389,43.75,-11.125,-16.875,-34.21984,-86.35019,-158.5629,0.7222689,0.6824421,0.08918684,0.06816322
18579,-5.017387,0.1352816,-2.154784,0,0,0,9.53884,-0.3782974,-1.024755,50.75,-8.25,-18.625,-30.03786,-86.26031,-162.3481,0.723709,0.6815029,0.08556757,0.06691297
18591,-5.017449,0.1353613,-2.154804,0,0,0,9.610668,-0.5411089,-1.101372,45,-6.125,-18.875,-26.44685,-86.16528,-165.6095,0.7249749,0.6806311,0.08247125,0.06596351
18603,-5.017521,0.1354345,-2.154843,0,0,0,9.490954,-0.4884346,-1.201932,35.25,-4.25,-18.5,-23.22024,-86.0714,-168.6466,0.7260488,0.6797619,0.08025452,0.06584945
18614,-5.017603,0.1355054,-2.154879,0,0,0,9.50532,-0.4213945,-1.254606,30.5,-2.875,-19,-19.94551,-85.97966,-171.7912,0.7270271,0.6789095,0.07828522,0.06621931
18626,-5.01768,0.1355759,-2.154912,0,0,0,9.510109,-0.4166059,-1.283338,28.75,-2.25,-20.875,-16.67702,-85.88886,-174.9558,0.7279229,0.6781047,0.07639164,0.06683368
18638,-5.017791,0.1356641,-2.154983,0,0,0,9.376028,-0.3352002,-1.336012,28.375,-2.25,-23,-12.56051,-85.76035,-178.9564,0.7290283,0.6770858,0.07399689,0.06780124
18651,-5.017884,0.1357251,-2.155062,0,0,0,9.270679,-0.225063,-1.336012,29.75,-2.875,-23.875,-8.751896,-85.61787,177.3598,0.7300963,0.6761057,0.07157104,0.06868874
18662,-5.017964,0.1357877,-2.15513,0,0,0,9.280257,-0.2394287,-1.355167,30.5,-3.25,-23.625,-5.549529,-85.46495,174.2855,0.7311199,0.6751648,0.0693003,0.06938088
18673,-5.018052,0.1358806,-2.155191,0,0,0,9.33772,-0.3591431,-1.436572,27.875,-3.125,-22.375,-3.002169,-85.29505,171.8359,0.7321543,0.6741641,0.06742936,0.07004337
18685,-5.018134,0.1359781,-2.155241,0,0,0,9.395183,-0.3687202,-1.450938,19.5,-2.25,-20.375,-1.002014,-85.1382,169.8247,0.7330077,0.6732171,0.06640209,0.07119872
18696,-5.01821,0.1360398,-2.155276,0,0,0,9.495743,-0.1149258,-1.374321,14.75,-1.5,-17.875,1.004343,-84.99825,167.7421,0.7336774,0.6723815,0.06570178,0.07282774
18708,-5.018283,0.1360592,-2.155307,0,0,0,9.510109,0.1532344,-1.336012,23.75,-2,-16.625,3.089296,-84.85235,165.6966,0.7344028,0.6716245,0.06421706,0.07381936
18719,-5.018356,0.1360847,-2.155337,0,0,0,9.519686,0.1484458,-1.364744,43.75,-3.25,-17.5,5.071693,-84.68116,164.0152,0.7354016,0.6708874,0.06117249,0.07316242
18730,-5.018425,0.1361702,-2.155361,0,0,0,9.553205,-0.1867544,-1.441361,62.25,-4.25,-19.75,6.599932,-84.49448,163.0303,0.736645,0.6701567,0.0568917,0.07076346
18742,-5.018489,0.1363127,-2.155392,0,0,0,9.514897,-0.5123774,-1.474881,63.75,-4.5,-20.5,7.613911,-84.31318,162.5851,0.7378983,0.6694109,0.05272986,0.06793121
18753,-5.018546,0.1364637,-2.155445,0,0,0,9.390394,-0.5650518,-1.455727,50.5,-3.625,-18.75,8.305661,-84.15678,162.2893,0.7389268,0.6686943,0.0497824,0.06600741
18765,-5.0186,0.1365812,-2.155523,0,0,0,9.251526,-0.3543545,-1.398264,33.25,-2.375,-14.75,8.848354,-84.02978,161.9165,0.7396668,0.6680439,0.04827309,0.06542317
18776,-5.018655,0.1366574,-2.155601,0,0,0,9.213217,-0.1292915,-1.393475,20.375,-1,-8.75,9.026055,-83.93845,161.7349,0.7401555,0.6674924,0.04804948,0.0656897
18788,-5.018715,0.136732,-2.155668,0,0,0,9.299411,-0.09577148,-1.422207,13.125,0.5,-2.25,8.538283,-83.88824,162.1196,0.7404547,0.6670574,0.04888773,0.06611557
18799,-5.01877,0.1368096,-2.155709,0,0,0,9.452645,-0.1292915,-1.422207,10.75,1.5,1.875,7.591142,-83.8726,162.9308,0.7406024,0.6667621,0.05026551,0.06640605
18811,-5.018828,0.136882,-2.155744,0,0,0,9.50532,-0.07661719,-1.407841,14,2.125,4.125,6.453723,-83.87315,163.9678,0.7406954,0.6665666,0.05158472,0.06632037
18823,-5.018874,0.1369221,-2.15579,0,0,0,9.423914,0.04788574,-1.336012,25.75,2.375,4.25,5.583306,-83.8788,164.895,0.7408023,0.6665217,0.05182481,0.06538302
18834,-5.018913,0.1369499,-2.155877,0,0,0,9.20364,0.09098291,-1.264184,42.875,2.125,3,4.951244,-83.88022,165.8116,0.741026,0.6665856,0.05058129,0.0631316
18846,-5.018958,0.1369972,-2.155983,0,0,0,9.050406,-0.05267432,-1.316858,56.75,2.125,1.5,4.304932,-83.86979,166.9141,0.7413983,0.666648,0.04833783,0.0597701
18858,-5.019028,0.1370904,-2.156136,0,0,0,8.988154,-0.2154858,-1.383898,62.375,2.75,0.625,3.432537,-83.85548,168.3956,0.7418681,0.6667236,0.04535195,0.05526955
18871,-5.019093,0.1371565,-2.15627,0,0,0,8.930691,-0.1819658,-1.417418,59.25,3.5,2,2.575776,-83.84623,169.7591,0.7422262,0.6667905,0.0429595,0.0514321
18882,-5.019162,0.1372077,-2.156394,0,0,0,8.925902,-0.1388687,-1.460515,54.625,4.75,4.375,1.580489,-83.8483,171.1832,0.742467,0.6668944,0.04112146,0.04799735
18893,-5.019239,0.1372676,-2.156516,0,0,0,8.954634,-0.2106973,-1.513189,48.75,6.375,6.75,0.2359072,-83.86662,172.8825,0.7425729,0.6670697,0.03995211,0.04480388
18905,-5.019313,0.1373419,-2.156623,0,0,0,9.026463,-0.3399888,-1.513189,40.75,8,8.625,-1.457243,-83.90738,174.8234,0.7424828,0.6673666,0.03963499,0.04207392
18916,-5.01938,0.1374419,-2.156721,0,0,0,9.10308,-0.517166,-1.470092,26.5,9.5,10.375,-3.623943,-83.97367,177.0553,0.7421383,0.6678005,0.04067517,0.04023455
18928,-5.019436,0.1375541,-2.156819,0,0,0,9.098291,-0.6464576,-1.417418,8.75,10.625,11,-6.024337,-84.05255,179.2899,0.7415793,0.6682917,0.04317654,0.03977534
18939,-5.019493,0.1376508,-2.156927,0,0,0,9.050406,-0.5746289,-1.388687,-11.625,11.75,11.75,-8.433806,-84.13896,-178.7355,0.7408215,0.6687794,0.04720872,0.04109694
18951,-5.019544,0.137684,-2.157026,0,0,0,9.098291,-0.2298516,-1.302492,-25.25,12.375,11.875,-10.30134,-84.24006,-177.4773,0.7398931,0.6692814,0.05186936,0.04393396
18962,-5.0196,0.1376511,-2.157118,0,0,0,9.160542,0.158023,-1.264184,-18.25,11.125,10,-11.32691,-84.33209,-176.9794,0.7390739,0.669701,0.05551366,0.04678209
18973,-5.019666,0.1375836,-2.157193,0,0,0,9.256314,0.3735088,-1.292915,6.375,8.875,6.25,-11.49434,-84.39364,-177.0157,0.7386194,0.6700087,0.05675931,0.04804392
18985,-5.019741,0.1375179,-2.157256,0,0,0,9.323354,0.3687202,-1.350378,35.75,6.75,2,-11.08867,-84.42152,-177.2395,0.7385637,0.6702457,0.05543296,0.04713587
18996,-5.019816,0.1374677,-2.157311,0,0,0,9.352086,0.292103,-1.383898,65.375,5.125,-2.125,-10.26233,-84.4243,-177.5045,0.7388276,0.6704689,0.05165432,0.04401214
19008,-5.019887,0.1374329,-2.157361,0,0,0,9.40476,0.1771773,-1.359955,83.125,4,-4.125,-9.335618,-84.41738,-177.6196,0.7392223,0.6707123,0.04635555,0.03932646
19019,-5.019925,0.1376274,-2.157398,0,0,0,9.467011,-1.225875,-1.326435,92.625,2.5,-4.75,-10.54871,-84.38731,-175.4682,0.7396064,0.6709644,0.04160998,0.03252406
19031,-5.019995,0.1376576,-2.157445,0,0,0,9.43828,-0.2442173,-1.369532,93.25,1.375,-5.125,-10.06523,-84.34362,-174.9589,0.7401536,0.6709801,0.03554046,0.02636827
19043,-5.020069,0.1377148,-2.157506,0,0,0,9.323354,-0.4261831,-1.436572,85.875,1,-6.125,-9.736819,-84.28399,-174.4349,0.7407022,0.6708165,0.03039854,0.02101052
19054,-5.020139,0.1377824,-2.157566,0,0,0,9.328143,-0.5028003,-1.426995,72.5,1.375,-6.875,-9.423508,-84.2328,-174.0725,0.741137,0.6706287,0.02629318,0.01679078
19066,-5.020206,0.1378394,-2.157621,0,0,0,9.352086,-0.4549146,-1.417418,58.5,1.75,-6.875,-9.035976,-84.19096,-173.9725,0.7414759,0.6704341,0.02323513,0.01384229
19079,-5.020291,0.1378652,-2.157713,0,0,0,9.261103,-0.2298516,-1.393475,48.5,2,-7.375,-8.140486,-84.15478,-174.4621,0.7418023,0.6702076,0.0203309,0.01174408
19091,-5.020345,0.1378742,-2.157796,0,0,0,9.222795,-0.158023,-1.312069,47.875,1.125,-8.375,-7.118307,-84.12517,-175.1286,0.7420801,0.6700039,0.01763028,0.01006132
19102,-5.020401,0.1378947,-2.157863,0,0,0,9.285046,-0.2202744,-1.355167,48.75,0,-9.5,-6.084388,-84.07639,-175.8027,0.742456,0.669677,0.01490207,0.008354397
19114,-5.020473,0.1379398,-2.157926,0,0,0,9.299411,-0.3543545,-1.460515,46.375,-0.75,-10.375,-5.15099,-84.00093,-176.4024,0.7429672,0.6691791,0.01239411,0.00674971
19125,-5.020542,0.1379945,-2.158009,0,0,0,9.174909,-0.4118174,-1.455727,39.375,-0.875,-10.625,-4.323771,-83.92297,-176.9893,0.7434712,0.6686614,0.01048869,0.005693951
19136,-5.020605,0.1380175,-2.158126,0,0,0,9.00252,-0.2011201,-1.393475,27.75,-1.25,-9.125,-3.38657,-83.84579,-177.8364,0.7439604,0.6681337,0.009373212,0.00569772
19148,-5.02066,0.1380069,-2.158245,0,0,0,8.978577,0.009577149,-1.364744,16.375,-2.5,-5.875,-2.575519,-83.75756,-178.7098,0.7444929,0.667534,0.00921802,0.006620859
19159,-5.020696,0.1379833,-2.158361,0,0,0,9.007308,0.09577148,-1.264184,5.5,-5.25,-2.375,-2.092472,-83.651,-179.3997,0.7451088,0.666815,0.01011351,0.008273375
19171,-5.02073,0.1379674,-2.158495,0,0,0,8.892383,0.06225147,-1.264184,3,-8.625,-2.25,-1.708625,-83.50067,179.9783,0.7459689,0.6658097,0.01124974,0.01006962
19182,-5.020769,0.1379601,-2.158654,0,0,0,8.753514,0.02394287,-1.312069,3.25,-10.875,-3.125,-1.318049,-83.31162,179.3517,0.7470467,0.6645508,0.01235354,0.01187138
19194,-5.020811,0.1379368,-2.158807,0,0,0,8.767879,0.1340801,-1.355167,2.125,-11.25,-2.125,-0.9307284,-83.11681,178.714,0.7481478,0.6632511,0.01352165,0.01378487
19205,-5.020855,0.1378819,-2.158925,0,0,0,8.983365,0.3304116,-1.417418,5,-10.875,-0.25,-0.5263253,-82.92493,178.0913,0.7492274,0.6619729,0.01446971,0.01552237
19216,-5.020886,0.1378311,-2.158989,0,0,0,9.280257,0.3256231,-1.407841,16.125,-11.125,0.375,-0.2498276,-82.74725,177.7431,0.75024,0.6608043,0.01465258,0.01621919
19228,-5.020901,0.1378035,-2.159044,0,0,0,9.361663,0.1771773,-1.355167,26.875,-12,-0.375,-0.09794085,-82.56993,177.6607,0.7512689,0.6596537,0.01411047,0.01590263
19239,-5.020911,0.1377945,-2.159112,0,0,0,9.285046,0.06704004,-1.350378,34,-13,-1.625,0.03671328,-82.38312,177.691,0.7523635,0.6584496,0.01302857,0.01495132
19251,-5.020916,0.1378191,-2.159187,0,0,0,9.285046,-0.1197144,-1.359955,34.875,-13.75,-2.5,0.03309817,-82.18024,177.8832,0.7535515,0.6571374,0.0119225,0.01373155
19263,-5.020924,0.1378717,-2.159251,0,0,0,9.299411,-0.3016802,-1.417418,28.5,-13.875,-3,-0.12305,-81.98347,178.1376,0.7546927,0.6558499,0.01147079,0.01297121
19275,-5.020934,0.1379287,-2.159321,0,0,0,9.256314,-0.3256231,-1.460515,15.125,-13,-2.5,-0.338812,-81.79488,178.2763,0.755765,0.6545963,0.01208251,0.01330525
19286,-5.020948,0.1379717,-2.159393,0,0,0,9.246737,-0.2394287,-1.508401,1.25,-11,-1.75,-0.5157109,-81.629,178.1916,0.7566813,0.6534706,0.01371977,0.0148841
19299,-5.020967,0.1379999,-2.159457,0,0,0,9.347297,-0.1149258,-1.54671,-6.5,-8.625,-1,-0.6303609,-81.48101,177.9019,0.7574694,0.6524383,0.01611543,0.01746074
19311,-5.02096,0.1380067,-2.159493,0,0,0,9.467011,-0.01436572,-1.450938,-4.875,-7.625,-2,-0.5416035,-81.38017,177.4658,0.7579855,0.6517209,0.01799995,0.01984796
19322,-5.020936,0.1380027,-2.159531,0,0,0,9.457435,0.05746289,-1.359955,5.25,-8.125,-4.75,-0.1595992,-81.28896,176.8773,0.758459,0.6510918,0.01880432,0.02158124
19334,-5.02092,0.1380003,-2.159578,0,0,0,9.390394,0.06704004,-1.407841,17,-8.25,-7.625,0.4438544,-81.18729,176.2234,0.7590086,0.6504286,0.01850094,0.02250175
19345,-5.020907,0.1380144,-2.159622,0,0,0,9.40476,-0.01436572,-1.450938,24.125,-7.75,-9.125,1.059211,-81.08743,175.6523,0.7595591,0.6497985,0.01763666,0.02281947
19357,-5.020899,0.1380527,-2.159665,0,0,0,9.419126,-0.1292915,-1.503612,22.5,-6.125,-8.75,1.529556,-81.00098,175.2076,0.7600306,0.6492528,0.01701029,0.02312806
19368,-5.020895,0.1381032,-2.159699,0,0,0,9.447857,-0.2154858,-1.551498,13.125,-3.375,-6.75,1.731708,-80.95204,174.91,0.7602761,0.648926,0.01733737,0.02397401
19379,-5.020889,0.1381454,-2.159727,0,0,0,9.490954,-0.1436572,-1.537132,2,-0.375,-4.625,1.848344,-80.94692,174.5483,0.7602452,0.6488603,0.0186096,0.02571501
19391,-5.020874,0.1381652,-2.159762,0,0,0,9.467011,0,-1.470092,0.875,1,-4.5,2.104792,-80.96741,174.0274,0.7600509,0.6489685,0.01986692,0.02770996
19402,-5.020854,0.1381733,-2.159813,0,0,0,9.361663,0.07661719,-1.412629,10.25,1.5,-6.625,2.600383,-80.99501,173.3955,0.7598254,0.6491631,0.02017247,0.02908087
19414,-5.020832,0.1381878,-2.159886,0,0,0,9.241948,0.05267432,-1.379109,19.75,1.125,-8.875,3.246392,-81.01561,172.7379,0.7596523,0.6493513,0.01962652,0.02976996
19425,-5.020808,0.1382264,-2.159977,0,0,0,9.17012,-0.06225147,-1.369532,22.25,0.875,-9.5,3.832837,-81.03319,172.1753,0.7595044,0.6495264,0.01893859,0.03016554
19437,-5.020796,0.1382778,-2.160055,0,0,0,9.174909,-0.1628115,-1.431784,16.75,1.375,-8.875,4.217242,-81.04856,171.7453,0.7593667,0.6496593,0.01883909,0.03082687
19448,-5.020789,0.138336,-2.160126,0,0,0,9.256314,-0.158023,-1.474881,8.375,2.625,-7.625,4.523726,-81.07751,171.2803,0.7591272,0.6498564,0.01946511,0.03215011
19460,-5.020788,0.1383699,-2.160179,0,0,0,9.356874,0.009577149,-1.503612,3.625,3.875,-6.875,4.947616,-81.11734,170.6303,0.758789,0.6501282,0.02037482,0.03402221
19471,-5.02079,0.138382,-2.160225,0,0,0,9.409549,0.158023,-1.513189,9.875,4.5,-7.5,5.58608,-81.15895,169.8443,0.7584307,0.6504549,0.0206429,0.03556987
19483,-5.020779,0.1383983,-2.160269,0,0,0,9.414337,0.1388687,-1.426995,22.875,4,-9.5,6.343606,-81.19931,169.117,0.7581103,0.6508284,0.01979616,0.03604652
19495,-5.020763,0.1384464,-2.16034,0,0,0,9.280257,-0.02873145,-1.393475,30.125,3,-10.75,7.023012,-81.22895,168.5682,0.7578852,0.6511443,0.01844847,0.03578914
19506,-5.02076,0.1385286,-2.160434,0,0,0,9.10308,-0.2537944,-1.441361,22,3.25,-9.625,7.333611,-81.2577,168.2811,0.7576841,0.6513835,0.01805568,0.03589441
19519,-5.020746,0.1386518,-2.160545,0,0,0,9.174909,-0.3160459,-1.407841,-2.5,4.5,-5.375,7.246188,-81.33065,168.0307,0.7571802,0.6517906,0.02013297,0.03797292
19531,-5.020729,0.1387136,-2.160629,0,0,0,9.227583,-0.08140577,-1.350378,-16.75,4.375,-2.5,7.172467,-81.40469,167.5961,0.756602,0.6521658,0.02317131,0.04118844
19542,-5.02072,0.1387188,-2.160712,0,0,0,9.160542,0.2394287,-1.350378,-11.25,3.375,-2.625,7.411095,-81.44719,166.9458,0.7561724,0.6523942,0.02534417,0.04407791
19554,-5.020716,0.138706,-2.160802,0,0,0,9.1366,0.3639317,-1.355167,7.75,2.125,-4.75,7.926443,-81.46107,166.2568,0.7559402,0.6525323,0.02588292,0.04567419
19565,-5.020713,0.138702,-2.160895,0,0,0,9.112657,0.3256231,-1.364744,30,1.125,-7.625,8.598979,-81.45163,165.7018,0.7559201,0.6526164,0.02459563,0.04551654
19577,-5.020712,0.1387189,-2.161006,0,0,0,9.031251,0.2106973,-1.374321,48.625,0.25,-9.375,9.276564,-81.42566,165.3928,0.7560816,0.6526492,0.021852,0.0437276
19588,-5.020703,0.1387742,-2.161133,0,0,0,8.930691,-0.02873145,-1.336012,53.75,-0.125,-9.5,9.691443,-81.40876,165.4096,0.7562556,0.6526967,0.01899662,0.0412751
19600,-5.020694,0.1388825,-2.161296,0,0,0,8.73436,-0.3543545,-1.326435,43.5,0.125,-8,9.629754,-81.4108,165.7744,0.7563627,0.652746,0.01732856,0.03921632
19611,-5.020687,0.1390091,-2.16149,0,0,0,8.542816,-0.483646,-1.321646,23.375,1.25,-5.75,9.254336,-81.43551,166.1907,0.7563094,0.6528422,0.01746607,0.03857655
19622,-5.020673,0.1391087,-2.161704,0,0,0,8.437468,-0.3304116,-1.249818,-0.625,2,-2.875,8.836647,-81.4811,166.3325,0.7560366,0.6530179,0.01947083,0.03996642
19634,-5.02065,0.1391486,-2.161931,0,0,0,8.36085,0.01436572,-1.149258,-14.25,1.875,0.25,8.566758,-81.53457,166.142,0.7556202,0.6532328,0.0224016,0.04269781
19645,-5.020631,0.1391225,-2.162198,0,0,0,8.145365,0.4022402,-1.096583,-11.625,0.75,2.75,8.519167,-81.56795,165.7518,0.7552739,0.6533505,0.02498123,0.04550242
19657,-5.02063,0.1390731,-2.162502,0,0,0,7.824531,0.5554746,-1.144469,5,-0.5,3.5,8.549262,-81.56276,165.5043,0.7552097,0.6532738,0.02618688,0.04696757
19668,-5.020634,0.1390248,-2.162887,0,0,0,7.441444,0.5219546,-1.120526,27.875,-0.75,3.625,8.538144,-81.54906,165.5929,0.75532,0.6532001,0.02573805,0.04646371
19680,-5.020636,0.1389878,-2.163337,0,0,0,7.043993,0.4357603,-1.063064,42,-0.125,4.75,8.366142,-81.54974,166.0262,0.755451,0.6532308,0.0244028,0.04458723
19691,-5.020646,0.1389663,-2.163902,0,0,0,6.704004,0.3064688,-1.067852,43.625,1.25,8.5,7.699085,-81.57378,166.9897,0.7555414,0.6533359,0.02333602,0.04201067
19703,-5.020649,0.1389835,-2.164449,0,0,0,6.522038,0.05746289,-1.019966,31.5,2.875,13.875,6.284198,-81.64555,168.5269,0.7553957,0.6536154,0.02397347,0.03987299
19715,-5.020629,0.1390556,-2.165009,0,0,0,6.469364,-0.3112573,-0.900252,10.5,4.25,17.875,4.000262,-81.77631,170.6593,0.7548801,0.6541616,0.02696799,0.03874712
19726,-5.020581,0.139165,-2.165546,0,0,0,6.560347,-0.5985718,-0.7565947,-18.625,4,20.625,1.068022,-81.93455,173.0648,0.7540385,0.6548248,0.03262883,0.03956934
19739,-5.020516,0.1392896,-2.166183,0,0,0,6.823719,-0.5602632,-0.775749,-48.5,2,21.5,-2.313055,-82.06403,175.4021,0.7530509,0.6552077,0.04154183,0.04349301
19751,-5.020505,0.1393415,-2.166663,0,0,0,7.000896,-0.2777373,-1.005601,-66.5,1.625,21.75,-4.945613,-82.10966,176.849,0.7523153,0.6550269,0.05056332,0.04903954
19762,-5.02054,0.1392996,-2.167091,0,0,0,7.096667,0.2968916,-1.211509,-69.875,2.75,22.5,-6.691691,-82.11681,177.3957,0.7516898,0.6545388,0.05889756,0.05543081
19774,-5.020595,0.1391717,-2.167511,0,0,0,7.192439,0.8140576,-1.235452,-51,4.25,23.25,-7.759471,-82.13653,177.4892,0.7510453,0.6541771,0.06536087,0.06092091
19785,-5.020618,0.139024,-2.167914,0,0,0,7.269056,0.9098291,-1.029544,-13.75,4.625,22.375,-8.592745,-82.20178,177.8377,0.7503731,0.6543573,0.06881203,0.06341834
19797,-5.020597,0.1389215,-2.16834,0,0,0,7.259479,0.5506861,-0.8044805,22,2.375,19,-9.642478,-82.28174,178.8704,0.7498482,0.6549289,0.06975491,0.06269047
19808,-5.020564,0.1389233,-2.168759,0,0,0,7.240324,-0.08619434,-0.8475776,46.5,-1,13.375,-11.08628,-82.3028,-179.3715,0.7497895,0.655363,0.06914002,0.05945294
19820,-5.020554,0.1390004,-2.169157,0,0,0,7.364827,-0.5315318,-1.077429,48.875,-1.5,8.75,-12.694,-82.26716,-177.4064,0.7500156,0.6555016,0.06844617,0.05576177
19831,-5.020549,0.139106,-2.169499,0,0,0,7.628199,-0.7374405,-1.177989,35.625,0.375,5.625,-14.18453,-82.23908,-175.7291,0.7500816,0.6556129,0.06863117,0.05328368
19843,-5.020544,0.1391737,-2.169777,0,0,0,8.054382,-0.5267432,-1.192355,15.375,2.625,5,-15.27241,-82.24979,-174.72,0.749831,0.6557882,0.06996559,0.05291543
19854,-5.020537,0.1391465,-2.169995,0,0,0,8.413525,0.009577149,-1.120526,3.875,3.5,7.375,-15.86589,-82.29755,-174.3629,0.7493613,0.656041,0.07175229,0.05403235
19866,-5.020532,0.1390297,-2.170205,0,0,0,8.494931,0.5219546,-1.039121,7,2.625,11.75,-16.22811,-82.35165,-174.2075,0.7489014,0.6563162,0.07316963,0.05515564
19877,-5.020542,0.1389161,-2.170419,0,0,0,8.408736,0.5363203,-1.110949,24.375,1.625,14,-16.7535,-82.37354,-173.6643,0.7487022,0.6565531,0.07346546,0.05464281
19888,-5.020559,0.1388911,-2.170614,0,0,0,8.557182,-0.02394287,-1.268972,44.375,1.875,12.25,-17.82594,-82.36462,-172.3027,0.7487014,0.6568655,0.07268063,0.05188073
19900,-5.02056,0.1389682,-2.170708,0,0,0,9.117445,-0.6799775,-1.350378,46,3.125,8.5,-19.28436,-82.36028,-170.5272,0.7485831,0.6573195,0.07203376,0.04863762
19912,-5.020549,0.1391407,-2.170655,0,0,0,9.921926,-1.197144,-1.460515,23.625,4.625,5.25,-20.99728,-82.36699,-168.7802,0.7481905,0.6577534,0.07318553,0.04706762
19924,-5.020577,0.1392999,-2.170493,0,0,0,10.54923,-1.211509,-1.766984,-15.875,7.75,5.5,-22.56542,-82.38022,-167.7005,0.7475415,0.6578879,0.07719871,0.04904718
19935,-5.020649,0.1394066,-2.170254,0,0,0,10.9802,-0.8858863,-2.020778,-56.75,12.75,10.625,-24.30653,-82.42648,-166.9917,0.7463822,0.6578906,0.08439243,0.05451296
19947,-5.020738,0.1394092,-2.169956,0,0,0,11.37765,-0.2729487,-2.030355,-92.25,18.625,17.625,-26.2487,-82.54862,-166.5452,0.7444366,0.6580015,0.09421985,0.06301314
19959,-5.020813,0.1392429,-2.169512,0,0,0,11.72243,0.4405488,-1.642481,-92,20.125,22.375,-28.41771,-82.7721,-166.0838,0.7416218,0.658493,0.1051619,0.07297345
19971,-5.020833,0.1390394,-2.169172,0,0,0,11.69849,0.7853262,-1.264184,-46,14.375,17.75,-29.53003,-82.96252,-165.8865,0.7396855,0.659107,0.110797,0.07853246
19983,-5.020844,0.1388289,-2.168849,0,0,0,11.65539,0.8523662,-1.163624,22.125,5.75,6.375,-29.19204,-83.08639,-166.2306,0.7391115,0.659763,0.1103212,0.07909585
19994,-5.020868,0.13869,-2.168535,0,0,0,11.56441,0.4884346,-1.350378,87.25,-2,-6.75,-27.59122,-83.11339,-166.9757,0.7399647,0.6603053,0.1042232,0.07474396
20005,-5.020901,0.1386897,-2.168253,0,0,0,11.37286,-0.2825259,-1.604172,121.375,-5.875,-14.5,-25.85535,-83.05496,-167.4153,0.7415228,0.6606389,0.09565498,0.06745651
20017,-5.020934,0.1388001,-2.167996,0,0,0,11.11907,-0.9098291,-1.723887,108.875,-5.25,-16.25,-24.58057,-82.97071,-167.5238,0.7429445,0.6607416,0.08818778,0.06063778
20028,-5.020945,0.1389424,-2.167781,0,0,0,10.91316,-1.134892,-1.618538,66.5,-2.875,-14.375,-23.8577,-82.91689,-167.6442,0.7437209,0.6606875,0.08429521,0.05714488
20040,-5.020927,0.139064,-2.167552,0,0,0,11.01372,-1.039121,-1.441361,22.625,-2.25,-11.625,-23.3741,-82.89192,-168.0973,0.743986,0.6604412,0.0838142,0.05725059
20051,-5.020937,0.1391555,-2.167286,0,0,0,11.234,-0.8188462,-1.618538,-21,-2.5,-8,-22.99729,-82.84207,-169.0137,0.7440686,0.6596407,0.08673534,0.0609364
20063,-5.020996,0.1391975,-2.167008,0,0,0,11.25794,-0.4309717,-1.857967,-50.625,-0.5,-4,-22.65579,-82.78735,-170.294,0.743921,0.6584893,0.09197543,0.06718609
20074,-5.021056,0.1391666,-2.166757,0,0,0,11.13822,0.03830859,-1.762195,-59.125,2.25,-2,-22.14421,-82.78387,-171.8521,0.7434011,0.6574945,0.09760769,0.07435419
20086,-5.02109,0.1390838,-2.166536,0,0,0,10.97541,0.3399888,-1.503612,-41.75,1.75,-4.125,-21.15163,-82.81168,-173.6731,0.7428777,0.6567594,0.1015722,0.0805163
20097,-5.021101,0.139008,-2.16636,0,0,0,10.76472,0.3304116,-1.355167,-14.375,-1.5,-8.25,-19.77886,-82.81403,-175.5028,0.7427735,0.6561283,0.1031514,0.08451617
20109,-5.021115,0.1389689,-2.166227,0,0,0,10.46303,0.1532344,-1.407841,8.375,-4.5,-11.625,-18.24329,-82.76055,-177.2019,0.7431878,0.6554036,0.1029805,0.08667788
20120,-5.021122,0.1389861,-2.166127,0,0,0,10.26191,-0.1436572,-1.446149,13.5,-5.5,-12.875,-16.97303,-82.68005,-178.5647,0.7437447,0.6546305,0.1026098,0.08816984
20132,-5.021114,0.1390445,-2.166049,0,0,0,10.09431,-0.3399888,-1.412629,3.75,-5.375,-12.25,-16.00886,-82.59666,-179.7585,0.7441559,0.6537688,0.1032383,0.09033372
20144,-5.021095,0.1390731,-2.166016,0,0,0,9.883617,-0.191543,-1.297704,-9.375,-5.5,-10.75,-15.13167,-82.52804,178.9712,0.744325,0.652873,0.1048356,0.09352332
20155,-5.021081,0.1390537,-2.166003,0,0,0,9.778269,0.1197144,-1.249818,-11.75,-6.25,-9.75,-14.04942,-82.45267,177.4598,0.7444968,0.6518884,0.1064568,0.09712406
20167,-5.0211,0.1390235,-2.165963,0,0,0,9.897983,0.2681602,-1.441361,-1.5,-6.25,-10,-12.85225,-82.34765,175.9667,0.74493,0.6508397,0.1072149,0.09995937
20179,-5.021177,0.1390062,-2.165851,0,0,0,10.16136,0.292103,-1.771773,17.375,-3.75,-10.625,-11.53285,-82.21938,174.5962,0.7456923,0.6498795,0.1064554,0.1013259
20191,-5.021222,0.1390006,-2.165767,0,0,0,10.11347,0.2346401,-1.68079,34.875,-1,-11.375,-10.34681,-82.15057,173.5979,0.7462965,0.6495566,0.1044088,0.1010774
20203,-5.021217,0.1390227,-2.165741,0,0,0,9.835732,0.009577149,-1.422207,46,-0.375,-12.5,-9.326125,-82.12418,172.9073,0.7467601,0.6496571,0.1016767,0.09978383
20214,-5.021182,0.1390993,-2.16575,0,0,0,9.644189,-0.3447773,-1.312069,44.75,-1.125,-13.375,-8.62739,-82.10529,172.5281,0.7471538,0.6498039,0.09927265,0.09829095
20226,-5.021148,0.1391935,-2.165763,0,0,0,9.610668,-0.4453374,-1.345589,29,-1.875,-11.75,-8.222165,-82.07588,172.2368,0.7474217,0.6497067,0.09828186,0.09789053
20237,0,0,0,0,0,0,9.668132,-0.3016802,-1.441361,5.75,-1.5,-7.25,-8.088732,-82.04258,171.9052,0.7474426,0.6493164,0.09928937,0.09929461
20250,0,0,0,0,0,0,9.716018,-0.09577148,-1.350378,-9.75,-1.625,-2.625,-8.167616,-82.02726,171.5601,0.7471583,0.6488435,0.1017571,0.1019907
20261,0,0,0,0,0,0,9.53884,0.09577148,-1.259395,-15.875,-3,1.125,-8.400555,-82.00843,171.3059,0.7468264,0.6482806,0.1047131,0.1049655
20273,0,0,0,0,0,0,9.261103,0.1723887,-1.264184,-20.875,-4.625,6,-9.036085,-81.97021,171.3793,0.746523,0.6475061,0.1084367,0.1080778
20284,0,0,0,0,0,0,9.194062,0.06225147,-1.302492,-27.75,-5.25,10.375,-10.17805,-81.9289,171.8846,0.7461395,0.6466299,0.1130211,0.1112298
20295,0,0,0,0,0,0,9.280257,-0.06704004,-1.206721,-36.25,-6.25,13.5,-11.7496,-81.89828,172.6938,0.7455244,0.645696,0.1186897,0.1148168
20307,5.733958E-05,-1.949345E-06,-7.164504E-05,0.00435182,-0.0001479466,-0.005437541,9.294622,0.0191543,-1.063064,-39.375,-8.875,14.25,-13.29007,-81.85339,173.4199,0.7448853,0.6446018,0.1246298,0.1187509
20320,0.0001852093,-5.008746E-05,-0.0002613424,0.00867678,-0.00326648,-0.01287218,9.20364,0.2011201,-1.034332,-32.625,-12.5,14.125,-14.76826,-81.74797,174.0839,0.7445402,0.6430911,0.1305419,0.1226894
20331,0.0003231385,-0.0001485513,-0.0004919143,0.01058064,-0.007553224,-0.01768733,9.318565,0.3543545,-1.173201,-14.75,-15.375,12.125,-15.72983,-81.59377,174.558,0.7448199,0.6415856,0.1341998,0.1249067
20343,0.000456493,-0.0003122097,-0.0007446412,0.01004856,-0.01233203,-0.01904354,9.553205,0.4453374,-1.407841,9.125,-17,9.625,-16.39144,-81.38208,175.0414,0.7457694,0.6400411,0.1359046,0.1253208
20355,0.0006064705,-0.0005324314,-0.00100344,0.01030844,-0.01513655,-0.01778807,9.735171,0.2490059,-1.484458,33.625,-16.75,8.5,-17.18635,-81.1516,176.0011,0.7471716,0.6388001,0.1358601,0.1233332
20367,0.0007711095,-0.0007398133,-0.001242018,0.01246132,-0.01569648,-0.01805766,9.6394,0.02873145,-1.422207,46.25,-16.5,7.5,-17.96885,-80.9583,177.1032,0.7485074,0.6379992,0.1349558,0.1203364
20379,0.0009690326,-0.0009413172,-0.001516025,0.01519213,-0.01546699,-0.02103215,9.433492,-0.07182861,-1.398264,51.375,-16.125,6.125,-18.65798,-80.77438,178.1769,0.7498429,0.6373345,0.1336277,0.1169789
20390,0.001239041,-0.001128544,-0.001853934,0.02081472,-0.01443315,-0.02604913,9.3042,-0.2346401,-1.211509,51.5,-16.25,4.875,-19.33883,-80.61893,179.2454,0.7509961,0.6368679,0.1322792,0.1136062
20402,0.001643537,-0.001314841,-0.00227358,0.03058567,-0.0140867,-0.03173126,9.308989,-0.3112573,-0.9241948,46.375,-18.375,3.75,-19.962,-80.48076,-179.8019,0.7519804,0.6364466,0.1312035,0.1106653
20413,0.002188688,-0.001573004,-0.002772313,0.04185418,-0.0198206,-0.03829046,9.280257,0.07661719,-0.6656118,43.5,-23.625,3.5,-20.14501,-80.31998,-179.3365,0.7531081,0.6357471,0.1299836,0.1084348
20425,0.002819373,-0.001945144,-0.003337624,0.04946165,-0.02918514,-0.0443346,9.280257,0.4405488,-0.8667319,53.125,-28.625,4.25,-20.02176,-80.07189,-179.0661,0.7548704,0.6345378,0.1279282,0.105674
20436,0.003483814,-0.00239913,-0.003951391,0.05108334,-0.0349032,-0.04718748,9.428702,0.2968916,-1.503612,64.875,-28.25,6,-20.13511,-79.73266,-178.3985,0.7572157,0.6329425,0.1253398,0.1014798
20448,0.004131601,-0.002869246,-0.004538766,0.04907846,-0.03561755,-0.04450149,9.763903,-0.0191543,-2.011201,69.625,-21.625,6.875,-20.5417,-79.41436,-177.3639,0.7594119,0.6316158,0.1226747,0.09646767
20459,0.004748546,-0.003341357,-0.005041683,0.04807492,-0.03678887,-0.03918935,9.979389,-0.04309717,-2.001624,74.25,-13.375,5.625,-20.83879,-79.22599,-176.3958,0.7609175,0.6311556,0.1195338,0.09142736
20470,0.005386604,-0.003875122,-0.005514988,0.04930511,-0.04124599,-0.03657404,9.816577,0.1245029,-1.738253,87,-6.5,2.625,-20.80442,-79.16679,-175.588,0.7618983,0.6316195,0.1149273,0.08578686
20482,0.006094913,-0.004496462,-0.006027601,0.05281955,-0.0463341,-0.03822616,9.529263,0.09577148,-1.508401,104.875,-2.375,-1.5,-20.50694,-79.1946,-174.7679,0.7626261,0.632815,0.1083888,0.07873077
20493,0.00681261,-0.005113645,-0.006539044,0.05735151,-0.04931943,-0.04086973,9.452645,-0.08140577,-1.422207,117.375,-0.25,-5.5,-20.10109,-79.26043,-173.9678,0.7631647,0.6342441,0.1011771,0.07125552
20505,0.00761915,-0.005752134,-0.007097906,0.06164325,-0.0487992,-0.04271333,9.500531,-0.3639317,-1.513189,118.375,2.125,-8.5,-19.69037,-79.34627,-173.0975,0.7635598,0.6357874,0.09350384,0.06330811
20516,0.008465852,-0.00633762,-0.00768785,0.06376719,-0.04409445,-0.04443022,9.467011,-0.6560347,-1.71431,102.25,7,-9.625,-19.44038,-79.46072,-172.2575,0.7635767,0.6373285,0.0870156,0.05649298
20528,0.009348841,-0.006835973,-0.008326827,0.06517009,-0.03678152,-0.04716046,9.380817,-0.8427891,-1.752618,74.875,12.75,-9,-19.43473,-79.63819,-171.5216,0.7629686,0.6390345,0.0826298,0.05182936
20540,0.01024022,-0.007231066,-0.009010713,0.06788375,-0.0300886,-0.05208179,9.23716,-0.8332119,-1.570652,41.25,18.125,-8.375,-19.55011,-79.89812,-171.1312,0.7616531,0.6409534,0.0808415,0.05027858
20552,0.01120072,-0.007573897,-0.009793811,0.07213629,-0.02574771,-0.05881318,9.146177,-0.6608232,-1.355167,15,20.625,-8.625,-19.55434,-80.22421,-171.2003,0.7598497,0.6430199,0.08078112,0.05126844
20563,0.01217719,-0.007878194,-0.01063523,0.07625125,-0.02376204,-0.06570479,9.131811,-0.4740689,-1.268972,-1.75,20.625,-8.625,-19.39311,-80.54694,-171.6491,0.7579991,0.6448668,0.08177028,0.05383148
20576,0.0133451,-0.008237331,-0.01171124,0.07940651,-0.02441785,-0.07315851,9.165331,-0.2298516,-1.288126,-18,20,-6.5,-19.10021,-80.89789,-172.5173,0.7558622,0.6466537,0.08423883,0.05844024
20588,0.014474,-0.008609885,-0.01277447,0.08341842,-0.02752932,-0.07856528,9.299411,-0.04309717,-1.139681,-29.125,18.25,-2.75,-18.94352,-81.21191,-173.3595,0.7537994,0.6481383,0.08754411,0.06355393
20599,0.01559465,-0.009014481,-0.01384008,0.08803859,-0.03178529,-0.08371551,9.313777,0.06225147,-1.010389,-33.625,14.625,0.5,-18.93426,-81.47055,-174.074,0.7519615,0.6492591,0.09119435,0.06855714
20611,0.01676154,-0.009482441,-0.01501771,0.08985052,-0.03603303,-0.0906776,9.155754,0.1245029,-1.177989,-30.875,11,2.125,-18.94646,-81.65037,-174.7475,0.7505348,0.6498669,0.09486642,0.07328607
20622,0.01792523,-0.009990384,-0.0162848,0.090433,-0.03947329,-0.09846856,9.074348,0.1053486,-1.249818,-21.25,9.25,1.25,-18.8835,-81.78908,-175.3645,0.7494087,0.6502863,0.09778582,0.07715121
20633,0.01913748,-0.01054406,-0.01767769,0.09196926,-0.04200583,-0.1056735,9.141388,0.02873145,-1.187566,-7.375,7.625,-1.375,-18.66319,-81.9193,-175.9656,0.7484574,0.6507617,0.09960487,0.07999681
20645,0.02035718,-0.0111177,-0.01908265,0.0943022,-0.04435124,-0.1086258,9.467011,0.01436572,-1.154046,3.625,6.5,-3.625,-18.25692,-82.0423,-176.6007,0.7476727,0.6512903,0.1004219,0.08198696
20656,0.0214395,-0.01134699,-0.01955718,0.08308892,-0.01760256,-0.03642944,14.94514,-1.958527,-3.510025,10.875,12.5,-1.5,-19.39061,-82.06471,-175.5925,0.7472662,0.6515154,0.1020595,0.08188327
20669,0.0220567,-0.01152153,-0.0197723,0.04441932,-0.012561,-0.01548144,10.7312,0.1963315,-4.472528,28,-13.5,8,-19.54185,-81.47594,-175.3621,0.7505805,0.6478108,0.1024612,0.08044828
20680,0.02217796,-0.01189021,-0.02019493,0.009278174,-0.02821015,-0.03233888,8.011285,1.719098,-3.668048,82.625,-8.5,-6.25,-16.82397,-80.98877,-177.2986,0.7543184,0.6448315,0.09607598,0.07723773
20692,0.02221533,-0.0122785,-0.02070025,0.002872091,-0.02984619,-0.03884048,9.06956,0.1340801,-1.958527,112.875,0.75,-15.625,-15.30308,-80.93254,-177.6171,0.7556484,0.6451886,0.08790079,0.07071582
20703,0.02228731,-0.01256568,-0.0212378,0.005458363,-0.02177692,-0.04076348,9.495743,-0.7565947,-1.489247,112.625,3.25,-15.75,-14.67503,-80.99019,-177.0181,0.7561371,0.6463738,0.08033058,0.06328247
20714,0.0223209,-0.01269913,-0.02183539,0.002640936,-0.0104912,-0.04698079,9.083925,-0.9625034,-1.877121,94.875,5.625,-14.375,-14.38078,-81.00272,-176.3538,0.7566153,0.64706,0.07462776,0.05724943
20726,0.02231275,-0.01269918,-0.02254319,-0.000621275,-4.123896E-06,-0.0539931,9.040829,-0.8858863,-1.857967,71.75,10.625,-13.25,-14.11029,-81.08249,-175.9423,0.7565381,0.6479737,0.07044321,0.05308513
20737,0.02233881,-0.01265502,-0.02331307,0.0019904,0.003373415,-0.05880966,9.299411,-0.4261831,-1.316858,47.375,14.375,-10.75,-13.61757,-81.3045,-176.0818,0.755527,0.6495686,0.0677791,0.05143665
20749,0.02250012,-0.0127006,-0.0241688,0.01181062,-0.003337728,-0.06265464,9.490954,0.2490059,-0.6464576,37.125,13.75,-8.125,-12.61822,-81.63886,-176.8634,0.7538742,0.6517512,0.06535055,0.05122083
20761,0.0227743,-0.01283155,-0.02504329,0.02085829,-0.009961775,-0.06652658,9.476588,0.2873144,-0.6273032,36.375,11.625,-6.125,-11.74634,-81.92411,-177.5377,0.7524478,0.6536278,0.06324208,0.05092581
20773,0.02312499,-0.01296927,-0.02598307,0.02650275,-0.0104076,-0.07102309,9.385606,-0.1292915,-0.9194063,34.875,9.25,-4.375,-11.46467,-82.12007,-177.6371,0.7514443,0.6549788,0.06182101,0.05012386
20784,0.0235332,-0.01304234,-0.02695669,0.03173302,-0.00568044,-0.07568584,9.352086,-0.5267432,-0.9720806,32.125,7.625,-4.625,-11.61036,-82.27345,-177.3452,0.7506201,0.6560732,0.06099534,0.04916428
20796,0.02412386,-0.01307983,-0.0280541,0.04308588,-0.002734831,-0.08004991,9.457435,-0.4405488,-0.5075889,26.625,5.125,-5.5,-11.57882,-82.47773,-177.2963,0.7494928,0.6574445,0.06035933,0.04882681
20808,0.02488143,-0.01318095,-0.02917105,0.05647992,-0.007539033,-0.08327357,9.57236,0.1149258,-0.2298516,23.125,2.25,-5.125,-10.8896,-82.68259,-177.9601,0.7483981,0.6587265,0.05952358,0.04936268
20819,0.02564405,-0.01333305,-0.03028523,0.05921934,-0.01181096,-0.08651873,9.462223,0.225063,-0.9960235,21.125,0,-3.75,-10.18719,-82.72503,-178.6663,0.7482122,0.6589421,0.05897034,0.04996489
20831,0.02630235,-0.01348452,-0.03147195,0.05060673,-0.01164398,-0.09122943,9.232371,0.02873145,-1.910641,21.375,-0.5,-3.5,-9.737226,-82.61089,-179.1152,0.7489009,0.6581646,0.0586749,0.05023991
20842,0.0267773,-0.01361105,-0.03271696,0.03687778,-0.00982495,-0.09666973,9.112657,-0.02873145,-2.341613,22.875,2.125,-3.875,-9.345124,-82.46472,-179.4859,0.7497773,0.6571915,0.0583144,0.05032879
20854,0.02707809,-0.01377321,-0.03405228,0.02294891,-0.01237202,-0.1018784,9.141388,0.3160459,-2.303304,25.25,6.75,-3.375,-8.60957,-82.38694,179.8276,0.7502921,0.6566598,0.05747127,0.0505648
20865,0.0272951,-0.01402009,-0.03543243,0.01671498,-0.01901549,-0.1063049,9.280257,0.5554746,-1.685578,31.125,8.5,-1.875,-7.763342,-82.43294,179.1028,0.7501278,0.6569752,0.05606827,0.05048003
20877,0.02762273,-0.01431761,-0.03687081,0.02511517,-0.02280688,-0.1102631,9.462223,0.1723887,-0.5889946,38.25,7.125,-1.25,-7.421154,-82.6358,178.9791,0.7490735,0.6583927,0.05447342,0.04940336
20888,0.02815451,-0.01456948,-0.03834692,0.0411339,-0.01948257,-0.1141785,9.529263,-0.4644917,-0.04309717,39.25,4,-2.25,-7.753032,-82.87717,179.5476,0.7477679,0.6600975,0.0532886,0.04769554
20899,0.02885991,-0.01470395,-0.03989891,0.05400406,-0.01029517,-0.1188173,9.43828,-0.8858863,-0.3208345,33.25,1.125,-3.75,-8.489475,-83.03255,-179.5501,0.7469003,0.6612273,0.05282605,0.04612906
20911,0.02957517,-0.01474203,-0.04150865,0.05506292,-0.00293103,-0.1239213,9.294622,-0.6320918,-1.182778,25.25,1.125,-4.375,-8.823841,-83.04563,-179.1571,0.7468286,0.6613593,0.05273062,0.04550341
20922,0.03013587,-0.01481465,-0.04318018,0.04315693,-0.005589978,-0.1286589,9.213217,0.2873144,-2.078241,22.375,2.75,-4.375,-7.955084,-82.93895,179.9865,0.7474982,0.6606199,0.05205393,0.04602331
20934,0.03054249,-0.01504415,-0.0448901,0.03150386,-0.01778095,-0.1324798,9.289834,1.048698,-1.98247,23.375,4.25,-2.125,-6.42977,-82.8697,178.4776,0.7479697,0.6601096,0.05081822,0.04705329
20945,0.03095759,-0.01547844,-0.04667179,0.03160468,-0.03306627,-0.1356548,9.457435,1.163624,-1.053486,28.5,3.625,2.125,-5.199516,-82.93822,177.3271,0.7476377,0.6605617,0.0494077,0.04748744
20957,0.03151804,-0.01601745,-0.04847967,0.04299302,-0.04134726,-0.138684,9.567572,0.5219546,-0.2490059,32.375,1.125,5.25,-5.098147,-83.10329,177.359,0.7467393,0.6616955,0.04854487,0.04672101
20968,0.03230337,-0.01656975,-0.05043333,0.05725653,-0.04026686,-0.1424364,9.53884,-0.2298516,-0.1532344,32.875,-2.625,6,-6.130741,-83.24178,178.5455,0.7459757,0.6626874,0.04839076,0.04499005
20980,0.03318472,-0.01698792,-0.05237314,0.06694625,-0.03176422,-0.1473461,9.395183,-0.7853262,-0.5075889,29,-5,5.125,-7.795038,-83.28027,-179.6874,0.7457249,0.6630492,0.04898934,0.04313007
20992,0.03411135,-0.01727536,-0.05437576,0.07064312,-0.02191316,-0.1526739,9.3042,-0.8619434,-0.9720806,22.625,-5.75,4.25,-9.41139,-83.22712,-178.051,0.7459397,0.662812,0.05006892,0.04180065
21003,0.03500982,-0.01745022,-0.05642465,0.06926222,-0.01347966,-0.1579466,9.256314,-0.7326519,-1.359955,21.5,-6.25,1.625,-10.45744,-83.10565,-176.999,0.7465577,0.6621097,0.05087767,0.04091365
21016,0.03592845,-0.01753953,-0.05884238,0.06235601,-0.006062477,-0.1641147,9.198852,-0.5506861,-1.723887,22,-4.75,-1.625,-10.89615,-82.92992,-176.5457,0.7475319,0.6610153,0.05124724,0.04035566
21028,0.03662895,-0.01759051,-0.06108237,0.05298391,-0.003856041,-0.1694264,9.189274,-0.1819658,-1.944161,20.625,-2.5,-3,-10.64392,-82.77567,-176.8057,0.7484366,0.659986,0.05121239,0.04047878
21039,0.03724006,-0.0176633,-0.06334412,0.04700847,-0.005599042,-0.1739807,9.275469,0.09577148,-1.68079,20.375,-1,-3.5,-10.04393,-82.69312,-177.4188,0.7489586,0.6593891,0.05087797,0.04096949
21051,0.03785876,-0.0177899,-0.06566347,0.0474903,-0.009717585,-0.1780281,9.380817,0.225063,-1.173201,19.875,-0.5,-2.75,-9.413226,-82.70042,-178.0706,0.7489608,0.6593757,0.05050193,0.04160543
21062,0.03851761,-0.0179923,-0.06800111,0.05118471,-0.01572402,-0.1816069,9.447857,0.3543545,-0.9050406,20.625,-0.875,-1.125,-8.821384,-82.7444,-178.676,0.7487471,0.6596129,0.05009435,0.04218217
21074,0.03923193,-0.01821732,-0.07044353,0.0543372,-0.01711756,-0.1857917,9.395183,0.004788574,-0.9912349,22,-2.125,-0.375,-8.736747,-82.75533,-178.7534,0.7486925,0.6596817,0.04998143,0.04220707
21085,0.03996709,-0.01837602,-0.07291464,0.05675165,-0.01225089,-0.19076,9.313777,-0.4740689,-1.101372,22,-3.25,-1.5,-9.128059,-82.73112,-178.3493,0.7488088,0.6595568,0.05022488,0.04180479
21097,0.04071969,-0.01845445,-0.07546236,0.05789225,-0.006032935,-0.1959792,9.280257,-0.5698403,-1.216298,20.625,-3.375,-3.125,-9.455752,-82.68681,-178.0244,0.7490366,0.6592922,0.05052197,0.04153945
21108,0.04146455,-0.01848494,-0.07806761,0.05745638,-0.002351528,-0.20096,9.285046,-0.3591431,-1.321646,18.375,-3,-4.5,-9.369626,-82.63403,-178.1435,0.7493346,0.6589261,0.05067474,0.04178929
21120,0.04220542,-0.01846881,-0.08076218,0.05665382,0.001233114,-0.2060541,9.275469,-0.3399888,-1.355167,19,-2.375,-6,-9.112668,-82.58526,-178.4244,0.7496243,0.6585783,0.0506365,0.04211968
21131,0.04292802,-0.01841225,-0.08350141,0.05570038,0.004359656,-0.2111488,9.270679,-0.2968916,-1.369532,20.125,-1.875,-7.125,-8.70458,-82.54276,-178.8411,0.7498946,0.658267,0.05038294,0.04247656
21143,0.04364537,-0.01834866,-0.08632375,0.05484327,0.004862064,-0.2157752,9.313777,-0.08140577,-1.345589,21,-1.375,-8,-7.959266,-82.51226,-179.585,0.7501172,0.658021,0.04979135,0.043049
21154,0.04435178,-0.01829488,-0.08914462,0.05510221,0.004194618,-0.2200362,9.347297,0.01436572,-1.254606,20.875,-1.25,-7.875,-7.151514,-82.49841,179.6062,0.7502397,0.6578866,0.04915274,0.04370016
21165,0.04511022,-0.01826753,-0.09207944,0.05796689,0.002090115,-0.2243059,9.380817,0.1149258,-1.043909,20,-1.875,-7.25,-6.288419,-82.50867,178.7291,0.7502114,0.6579118,0.04853455,0.04449051
21177,0.0458995,-0.01825012,-0.0950699,0.06035618,0.00133167,-0.228681,9.366451,0.03352002,-1.091795,19.25,-2.125,-7,-5.57279,-82.50642,177.9905,0.7502367,0.657866,0.04809033,0.04521709
21189,0.04673282,-0.01820424,-0.09827116,0.0607958,0.003347413,-0.2335496,9.323354,-0.1388687,-1.268972,18.375,-2.125,-6.75,-5.097943,-82.47421,177.4814,0.7504188,0.65763,0.04790763,0.04581868
21201,0.04754254,-0.01815636,-0.1014016,0.06158495,0.003641506,-0.2380895,9.33772,-0.004788574,-1.230664,20.5,-2.5,-7.125,-4.459867,-82.44366,176.8375,0.7506005,0.6574187,0.04742593,0.04637092
21212,0.04836747,-0.01814691,-0.1045875,0.06274136,0.0007189042,-0.2423168,9.366451,0.2537944,-1.177989,24.125,-3,-7.125,-3.533263,-82.41264,175.95,0.7507973,0.6572287,0.04644605,0.04686796
21224,0.04919395,-0.0182006,-0.1078303,0.06279819,-0.004079983,-0.2463933,9.366451,0.4261831,-1.249818,26.625,-3.375,-5.875,-2.566018,-82.36352,175.0522,0.7510983,0.6569437,0.04525065,0.04720794
21236,0.05012088,-0.01831927,-0.1114749,0.06378066,-0.008165397,-0.2507789,9.380817,0.3495659,-1.206721,26.25,-3.875,-3.625,-1.879909,-82.3137,174.4361,0.7513987,0.6566586,0.04427435,0.04732119
21248,0.05099352,-0.01846223,-0.1148449,0.06597956,-0.01080917,-0.2548024,9.390394,0.2633716,-1.125315,24.75,-4.5,-1.875,-1.547456,-82.27744,174.1469,0.7516147,0.6564471,0.04374245,0.04731997
21260,0.05188818,-0.01862022,-0.1182184,0.0686404,-0.01212113,-0.2588201,9.390394,0.1628115,-1.106161,23,-5.125,-1,-1.433978,-82.24021,174.0535,0.7518327,0.6562141,0.04352331,0.04729068
21271,0.0528344,-0.01877246,-0.1216335,0.07287559,-0.01172508,-0.2630259,9.390394,0.01436572,-1.005601,20,-5.875,0,-1.585067,-82.21384,174.1861,0.7519814,0.6560287,0.04374828,0.04729087
21283,0.05385312,-0.01892657,-0.1251661,0.07713493,-0.01166914,-0.2674811,9.376028,0.03830859,-1.010389,18.5,-6.625,0.375,-1.750643,-82.1769,174.3124,0.7521819,0.655766,0.04410274,0.04741652
21294,0.05485601,-0.01908301,-0.1287095,0.07696792,-0.01200588,-0.2719425,9.323354,0.1101372,-1.350378,18.625,-6.75,0.75,-1.901899,-82.08488,174.4259,0.7526977,0.6551421,0.04442591,0.04755329
21305,0.05579303,-0.01924444,-0.1322363,0.07345715,-0.0126554,-0.2764796,9.270679,0.1676001,-1.623327,20,-6.25,1.375,-2.062158,-81.96041,174.5657,0.7534057,0.6543111,0.04465282,0.04756974
21317,0.05671639,-0.01941833,-0.1358929,0.07098433,-0.01336807,-0.2811003,9.280257,0.158023,-1.556287,21.375,-5.5,1.625,-2.237587,-81.85757,174.7381,0.7539971,0.6536279,0.04480247,0.04745207
21328,0.05764748,-0.01960266,-0.1396576,0.07065444,-0.01398782,-0.2856871,9.308989,0.1245029,-1.407841,22,-4.875,2.125,-2.469854,-81.78931,174.9752,0.7543938,0.6531752,0.04496686,0.047224
21340,0.05855179,-0.0197786,-0.1433844,0.07043471,-0.01370386,-0.2902708,9.299411,0.04788574,-1.417418,21.625,-4.125,2.5,-2.797397,-81.73386,175.3032,0.7547169,0.6528034,0.04524642,0.04693584
21351,0.0594587,-0.01995097,-0.147203,0.07002638,-0.01330914,-0.2948504,9.299411,0.03352002,-1.441361,20.875,-3.25,3,-3.171235,-81.68719,175.6675,0.7549835,0.6524876,0.04562916,0.04666792
21363,0.06037749,-0.02013028,-0.1512108,0.06867418,-0.01340232,-0.2995619,9.289834,0.07182861,-1.513189,20.25,-2.375,3.5,-3.547101,-81.63987,176.0242,0.755248,0.6521653,0.04607199,0.04645767
21374,0.06119262,-0.02029522,-0.1550214,0.06504911,-0.01316237,-0.3040892,9.251526,0.06225147,-1.709521,19.625,-1,4,-3.944701,-81.58369,176.3958,0.7555581,0.6517836,0.046577,0.04626867
21385,0.0619754,-0.02046558,-0.1590637,0.05981784,-0.01301868,-0.3089,9.227583,0.07661719,-1.824447,19.75,1,4.125,-4.337739,-81.53362,176.763,0.7558314,0.651444,0.04708085,0.04607806
21397,0.06272188,-0.02064449,-0.1632292,0.05621915,-0.01347417,-0.3137165,9.251526,0.09577148,-1.695155,20.375,2.375,4.625,-4.733572,-81.52326,177.1402,0.7558779,0.6513728,0.04754862,0.04583967
21409,0.06348374,-0.02084415,-0.1675315,0.05638826,-0.01477755,-0.3184301,9.308989,0.1101372,-1.403052,20.75,3.375,5.25,-5.149109,-81.57536,177.5406,0.7555675,0.6517181,0.04800733,0.0455693
21421,0.06425569,-0.02103057,-0.1717868,0.05861926,-0.01415625,-0.3231337,9.323354,-0.06704004,-1.254606,21,3.75,5.125,-5.723526,-81.65414,178.1057,0.7551003,0.6522487,0.04856726,0.0451291
21432,0.06507317,-0.02117801,-0.176156,0.06139531,-0.01107306,-0.3281373,9.308989,-0.2729487,-1.225875,20.875,3.375,4.5,-6.47241,-81.73063,178.8463,0.7546338,0.6527766,0.04926672,0.0445357
21444,0.06589867,-0.02128886,-0.18042,0.06446216,-0.00865577,-0.3329683,9.313777,-0.2490059,-1.177989,21,3,3.625,-7.081818,-81.80358,179.4496,0.7541874,0.6532825,0.04981929,0.04406171
21456,0.06686716,-0.0214057,-0.1854006,0.0657896,-0.00793691,-0.3383349,9.308989,-0.1005601,-1.297704,21.5,3.25,2.875,-7.512656,-81.86648,179.8796,0.7538054,0.6537189,0.05018055,0.04371507
21468,0.06772141,-0.02150919,-0.1900053,0.06367408,-0.007714172,-0.3432262,9.275469,-0.04309717,-1.532344,21.625,4,2.875,-7.83252,-81.89303,-179.8005,0.753635,0.6539125,0.05044878,0.04344748
21480,0.06850144,-0.02159895,-0.1944745,0.06075469,-0.006990947,-0.3480908,9.251526,-0.08140577,-1.599384,21.125,5.125,3.125,-8.197816,-81.92093,-179.4415,0.7534503,0.6541164,0.05079006,0.04318479
21491,0.06928236,-0.02169997,-0.1990563,0.06013557,-0.007779216,-0.3528271,9.294622,0.004788574,-1.398264,20.25,5.875,3.25,-8.479877,-81.99048,-179.1783,0.7530267,0.6545845,0.05110969,0.04310137
21503,0.0700938,-0.02184237,-0.203652,0.063029,-0.01106093,-0.3569722,9.380817,0.158023,-1.091795,20.875,6,3.625,-8.626903,-82.10887,-179.044,0.7523361,0.6553657,0.05125122,0.04312295
21514,0.07097504,-0.02201674,-0.2084092,0.06691319,-0.01324006,-0.3612163,9.390394,0.05267432,-1.015178,22.5,5.125,4.25,-8.962348,-82.22707,-178.6995,0.7516398,0.6561688,0.05142158,0.04284824
21526,0.071885,-0.02217451,-0.2131386,0.07035346,-0.01219778,-0.3656597,9.361663,-0.2011201,-1.058275,23.875,3.875,4.25,-9.583375,-82.31512,-178.0491,0.7510982,0.6568077,0.05171854,0.04219551
21537,0.07282753,-0.02227683,-0.2179656,0.07235744,-0.007855562,-0.3705635,9.308989,-0.4549146,-1.187566,23.75,3.125,3.375,-10.41144,-82.36819,-177.1898,0.750733,0.657242,0.05218413,0.04134897
21548,0.07379203,-0.02231819,-0.222832,0.0744499,-0.003192132,-0.3756359,9.294622,-0.4980117,-1.173201,23,2.5,2,-11.13841,-82.41264,-176.4401,0.7504157,0.6576142,0.05261229,0.04064318
21560,0.07480293,-0.02230426,-0.2277876,0.07764795,0.001070025,-0.3806429,9.313777,-0.4884346,-1.077429,22.125,2.125,0.375,-11.69106,-82.46706,-175.8747,0.7500502,0.6580342,0.05294213,0.04016049
21571,0.07584333,-0.02223294,-0.2327931,0.08013564,0.005492731,-0.3855472,9.313777,-0.5028003,-1.125315,20.625,2,-1,-12.11011,-82.51151,-175.4614,0.749748,0.6583675,0.05327285,0.03990223
21583,0.07690848,-0.02211592,-0.2379182,0.08116731,0.008917651,-0.3905391,9.299411,-0.4118174,-1.221087,20.125,1.75,-2.25,-12.27915,-82.53863,-175.3048,0.7495693,0.6585579,0.05345493,0.03987398
21594,0.07794879,-0.02199956,-0.2429729,0.08135052,0.009099219,-0.3952703,9.308989,-0.1532344,-1.249818,19.375,1.75,-3,-12.05613,-82.56413,-175.5515,0.7494419,0.6586863,0.05339241,0.04022979
21606,0.07901368,-0.02190448,-0.2482209,0.08112783,0.007243528,-0.3998197,9.332932,0.01436572,-1.259395,18.375,1.875,-2.625,-11.66461,-82.59164,-175.9826,0.7493146,0.6588032,0.05328697,0.04082243
21617,0.08008377,-0.02183031,-0.2534993,0.0819613,0.005680886,-0.4042917,9.347297,-0.009577149,-1.177989,18.875,1.625,-2.625,-11.31748,-82.62749,-176.362,0.7491348,0.6589849,0.05317087,0.04133807
21629,0.08122875,-0.02177743,-0.2590991,0.08359381,0.003860597,-0.4088318,9.366451,0.004788574,-1.115738,18.375,1.75,-2.5,-10.96025,-82.67644,-176.7602,0.7488769,0.6592475,0.05308924,0.0419253
21641,0.0823281,-0.02174229,-0.264534,0.08358841,0.002671702,-0.4132386,9.347297,-0.01436572,-1.235452,18,1.375,-2,-10.68906,-82.69685,-177.0759,0.7487689,0.6593347,0.05311823,0.04244336
21652,0.08343854,-0.02172083,-0.2700283,0.08443079,0.001631676,-0.4177558,9.347297,-0.02873145,-1.168412,17.5,1.125,-1.625,-10.48403,-82.72376,-177.3319,0.7486151,0.6594667,0.0532337,0.04295665
21664,0.08456868,-0.02173138,-0.275499,0.08716173,-0.0008139355,-0.4219263,9.390394,0.06704004,-1.005601,17.625,0.375,-1.5,-10.18651,-82.76646,-177.6791,0.7483776,0.6596957,0.05326014,0.04354207
21676,0.08590405,-0.02177864,-0.2817864,0.09061331,-0.003206796,-0.4266367,9.395183,0.04309717,-0.9816577,18.875,-1.125,-0.75,-9.971151,-82.79521,-177.9327,0.748216,0.6598471,0.05329584,0.04397792
21689,0.08713246,-0.02182401,-0.2875338,0.09216783,-0.003403909,-0.431235,9.352086,-0.08619434,-1.115738,19.5,-2,-0.5,-9.964727,-82.78547,-177.9642,0.7482625,0.6597719,0.05344163,0.04414051
21700,0.08831874,-0.02185362,-0.2931655,0.09182389,-0.002292042,-0.4359214,9.313777,-0.1676001,-1.273761,19.125,-2,-0.5,-10.05332,-82.75048,-177.9041,0.748445,0.6595379,0.05369573,0.04423413
21711,0.0894853,-0.02186179,-0.2988958,0.08974206,-0.0006282867,-0.4408291,9.280257,-0.191543,-1.417418,18.75,-1.625,-0.875,-10.12646,-82.69787,-177.864,0.7487283,0.6591852,0.05397573,0.04435696
21723,0.09060548,-0.02185381,-0.3046328,0.08703212,0.0006198669,-0.4457241,9.270679,-0.1532344,-1.470092,18.75,-0.75,-1.125,-10.12625,-82.65014,-177.8971,0.7489884,0.6588592,0.05419485,0.04453962
21734,0.09171253,-0.02183971,-0.3105412,0.08443036,0.001075507,-0.4506124,9.280257,-0.09098291,-1.455727,19,0.25,-1.25,-10.04181,-82.61887,-178.0123,0.7491626,0.6586337,0.05432476,0.04478624
21746,0.09280142,-0.02183522,-0.3164515,0.08387054,0.0003459552,-0.4552347,9.318565,-0.0191543,-1.292915,19.5,0.5,-1.125,-9.894258,-82.61866,-178.1846,0.7491665,0.6586083,0.05435055,0.04506443
21757,0.0939097,-0.0218646,-0.3224434,0.08500339,-0.002253806,-0.4595733,9.361663,0.1101372,-1.144469,20.25,0.5,-0.75,-9.635476,-82.64299,-178.46,0.7490408,0.6587388,0.05422756,0.0453929
21769,0.0950038,-0.0219354,-0.3284492,0.08450646,-0.005467966,-0.4638772,9.347297,0.1819658,-1.259395,20.125,0.75,0.125,-9.382298,-82.65142,-178.7327,0.7490038,0.6587654,0.0541358,0.04572528
21780,0.09606428,-0.02203689,-0.3345575,0.08134348,-0.007785334,-0.4685374,9.294622,0.1436572,-1.470092,20.375,1.125,1.125,-9.277965,-82.62984,-178.854,0.7491287,0.6586088,0.05416205,0.04590497
21791,0.09708269,-0.02216196,-0.340709,0.07833929,-0.009620338,-0.4731908,9.294622,0.1053486,-1.465304,20.625,2,2,-9.314704,-82.62063,-178.8311,0.7491735,0.6585445,0.05427586,0.04596132
21803,0.09810475,-0.02231736,-0.3469103,0.07870463,-0.01196664,-0.4775386,9.352086,0.1053486,-1.201932,20.375,2.375,2.875,-9.447506,-82.65869,-178.7161,0.7489381,0.6587943,0.05446241,0.04599578
21814,0.09918763,-0.02248954,-0.3531266,0.08390618,-0.01334168,-0.4816592,9.414337,-0.02873145,-0.8332119,20.125,1.125,3.625,-9.827209,-82.73705,-178.3565,0.7484517,0.6593245,0.0548306,0.04587901
21826,0.100397,-0.02267282,-0.3595091,0.09202868,-0.01394721,-0.4856957,9.452645,-0.1292915,-0.6177261,20,-0.875,3.625,-10.34138,-82.8222,-177.8634,0.7479131,0.6599107,0.05529667,0.04567594
21837,0.1017053,-0.02286384,-0.3658876,0.1004176,-0.01466044,-0.4895585,9.467011,-0.1340801,-0.584206,20.625,-3.875,3.5,-10.83007,-82.87024,-177.3872,0.7475898,0.6602598,0.05571031,0.04541824
21849,0.1031728,-0.02308325,-0.3726441,0.1072145,-0.01603127,-0.4936456,9.447857,-0.07661719,-0.7230747,21,-6.375,3.625,-11.25033,-82.86213,-176.9756,0.7475941,0.6602417,0.05608631,0.04514812
21861,0.1046438,-0.02330923,-0.3792198,0.1113588,-0.01710654,-0.4977825,9.409549,-0.07661719,-0.9146177,22.375,-8.75,3.375,-11.5886,-82.79198,-176.6273,0.7479659,0.6598247,0.0563407,0.04476697
21872,0.1061614,-0.02352821,-0.3858011,0.1158275,-0.01671334,-0.5023132,9.376028,-0.2011201,-0.9146177,24.125,-10.875,3.125,-12.02332,-82.69476,-176.1582,0.7484896,0.6592556,0.05655695,0.04412301
21884,0.1077532,-0.02372552,-0.3923756,0.1226939,-0.01520776,-0.5067426,9.399971,-0.3256231,-0.7565947,22,-12.5,2.875,-12.55802,-82.60325,-175.6154,0.7489535,0.6587266,0.05700678,0.04356844
21896,0.1096736,-0.02391956,-0.3999107,0.130418,-0.01317758,-0.5117197,9.399971,-0.3591431,-0.7853262,18.625,-14.125,2.25,-13.08998,-82.47288,-175.1228,0.7496154,0.6579256,0.05777343,0.04327814
21909,0.1114111,-0.02403136,-0.4067493,0.1313707,-0.0084534,-0.5170557,9.265891,-0.5219546,-1.283338,17,-14.25,0.875,-13.54576,-82.27439,-174.7213,0.7506598,0.6566707,0.05864364,0.04306325
21920,0.1130411,-0.02406387,-0.4135471,0.1253213,-0.002499841,-0.5226688,9.155754,-0.5506861,-1.862755,14.625,-12.75,-0.5,-13.81752,-82.01149,-174.533,0.7520761,0.6549582,0.05960729,0.0431073
21932,0.1145943,-0.02402387,-0.4204347,0.119144,0.003068557,-0.528311,9.146177,-0.5219546,-1.905853,18.25,-11.5,-2.875,-13.8299,-81.76725,-174.5551,0.7534372,0.6533535,0.06005869,0.04306353
21943,0.1160972,-0.02394299,-0.4272947,0.1168889,0.006290787,-0.5335633,9.213217,-0.3878745,-1.618538,20.375,-9.875,-4.75,-13.57818,-81.60368,-174.8128,0.7543919,0.6522475,0.06003205,0.04315386
21954,0.1175955,-0.0238558,-0.4343733,0.1140029,0.006633867,-0.5385805,9.23716,-0.1484458,-1.656847,20.5,-7.875,-5.375,-13.03792,-81.4653,-175.3599,0.7552452,0.6512624,0.05971486,0.04354494
21966,0.1189855,-0.02378652,-0.4414117,0.1073307,0.005350203,-0.5435126,9.194062,0.03352002,-1.953738,20,-5.75,-4.875,-12.38209,-81.31361,-176.0317,0.7561818,0.6501712,0.05933769,0.04410815
21977,0.1202774,-0.02370963,-0.448548,0.09932574,0.005911382,-0.5486495,9.155754,-0.08140577,-2.092607,19.375,-2.875,-4.5,-11.91767,-81.17741,-176.5193,0.7569996,0.6492046,0.05914717,0.04457431
21989,0.1214973,-0.02356785,-0.4557297,0.09410366,0.01093683,-0.5540116,9.155754,-0.450126,-1.944161,17.25,0,-5.125,-11.82232,-81.10192,-176.66,0.757418,0.6486731,0.05937311,0.04489987
22000,0.1226412,-0.02333568,-0.4630515,0.08745597,0.01775011,-0.5597746,9.107868,-0.5602632,-2.068664,13,4.75,-6.75,-11.72307,-81.06902,-176.8579,0.7575767,0.6483927,0.05986193,0.04561825
22012,0.1236979,-0.02313522,-0.4703649,0.08155749,0.01547165,-0.5644343,9.218005,0.1436572,-1.925007,16.5,6.25,-7.5,-10.87251,-81.08782,-177.7685,0.7575461,0.6483859,0.05937804,0.04684043
22023,0.1248095,-0.02299561,-0.4778127,0.08486388,0.01065785,-0.5685775,9.376028,0.2490059,-1.192355,24.625,5.5,-7.25,-9.963402,-81.2139,-178.6326,0.756945,0.6491483,0.05818445,0.04749062
22034,0.1259843,-0.0228218,-0.4851636,0.09163868,0.01355886,-0.5734376,9.342508,-0.3735088,-0.9768692,23.125,5.125,-7,-9.733058,-81.35859,-178.8306,0.756161,0.6500973,0.05770488,0.04758319
22046,0.1272386,-0.02258954,-0.4927282,0.09592505,0.01776211,-0.5785099,9.3042,-0.4309717,-1.168412,20.25,4.75,-7.875,-9.476635,-81.46641,-179.0902,0.7555712,0.6507836,0.05742922,0.04790528
22057,0.1285017,-0.02239476,-0.5003517,0.09658609,0.01489407,-0.5829232,9.328143,0.1676001,-1.355167,20.625,4.75,-8.125,-8.554427,-81.54267,179.9824,0.7552049,0.6512147,0.0565828,0.0488214
22069,0.1298336,-0.02228188,-0.5083691,0.09749787,0.008263598,-0.5869272,9.380817,0.4549146,-1.292915,21.125,4.375,-6.25,-7.453199,-81.62405,178.8774,0.7548053,0.6516842,0.05557921,0.04987649
22081,0.1311631,-0.0221898,-0.5161754,0.1006976,0.00697387,-0.5912529,9.366451,0.05746289,-1.158835,21.75,3.625,-5.25,-6.921748,-81.71128,178.3546,0.7543362,0.6522392,0.05502996,0.05032562
22093,0.1325305,-0.02204884,-0.5240089,0.1040683,0.01072746,-0.5961546,9.318565,-0.3208345,-1.182778,22,3.125,-5.875,-6.760611,-81.78553,178.2104,0.7539262,0.6527305,0.05477248,0.05037982
22104,0.1339198,-0.02187215,-0.5319251,0.1054917,0.013416,-0.6010789,9.299411,-0.2106973,-1.307281,21.875,3.125,-6.625,-6.412464,-81.83675,177.8771,0.7536525,0.6530629,0.0543706,0.05060345
22117,0.1354797,-0.02166063,-0.5407187,0.1075689,0.0145868,-0.6064141,9.313777,-0.08140577,-1.245029,22.75,2.875,-7,-5.832693,-81.89778,177.325,0.7533326,0.6534613,0.05369509,0.0509423
22129,0.1369845,-0.02145218,-0.5488209,0.1135641,0.01573057,-0.6114445,9.347297,-0.1245029,-0.9241948,21.75,2.625,-6,-5.435647,-82.00111,176.9396,0.7527551,0.6541386,0.0532731,0.05122873
22140,0.1384622,-0.02131987,-0.5568449,0.1133008,0.01014531,-0.6152444,9.376028,0.4740689,-1.316858,21.625,2.75,-4.125,-4.572271,-82.03574,176.0779,0.7525672,0.6543578,0.05252031,0.05196311
22152,0.139923,-0.02124461,-0.5648755,0.1126132,0.005801789,-0.6190721,9.366451,0.4022402,-1.359955,22.75,1.25,-3.75,-3.859343,-82.04263,175.3819,0.7525351,0.6544112,0.05181324,0.05246302
22163,0.1414502,-0.02118739,-0.5731136,0.1155563,0.004329204,-0.6233353,9.376028,0.1484458,-1.110949,22.875,0.875,-3.25,-3.465071,-82.08711,175.0088,0.7522864,0.654717,0.05135972,0.05265926
22175,0.1429656,-0.02115466,-0.5812831,0.1163938,0.002514153,-0.627507,9.356874,0.2059087,-1.259395,24,0.5,-2.25,-3.130577,-82.10143,174.7084,0.7522154,0.6548311,0.05088177,0.05271848
22186,0.1444482,-0.02115494,-0.5893425,0.1161798,-2.166466E-05,-0.6315178,9.352086,0.2825259,-1.331224,25,0,-1.375,-2.817422,-82.09744,174.4401,0.7522534,0.6548302,0.05035902,0.05269108
22197,0.1459886,-0.02119282,-0.5976115,0.1184093,-0.002911959,-0.635637,9.376028,0.2825259,-1.139681,25.125,-0.625,-0.375,-2.583512,-82.11678,174.2524,0.7521586,0.6549827,0.04990006,0.05258399
22209,0.1476294,-0.02126526,-0.6060413,0.1244926,-0.005496014,-0.6395835,9.433492,0.2154858,-0.8523662,23.5,-1.625,0.75,-2.511851,-82.17158,174.2054,0.7518541,0.6553555,0.0497092,0.05247436
22220,0.1492947,-0.02133755,-0.6143023,0.1297429,-0.005632543,-0.6436356,9.409549,0.03352002,-0.9241948,21.5,-2.875,1.625,-2.750383,-82.20006,174.4436,0.7516957,0.6555375,0.04991769,0.05227284
22232,0.150992,-0.02138842,-0.6226979,0.1310344,-0.003927251,-0.6481544,9.332932,-0.07182861,-1.249818,20.125,-3.75,1.875,-3.173119,-82.16649,174.8492,0.7518881,0.6553016,0.05036565,0.05203277
22244,0.1527285,-0.02140537,-0.6314077,0.1302022,-0.001270899,-0.653059,9.289834,-0.1245029,-1.426995,20.625,-3.75,1.375,-3.624751,-82.10307,175.291,0.7522521,0.6548754,0.0507967,0.05171806
22255,0.1543521,-0.02139428,-0.6396729,0.1291846,0.0008823881,-0.6576325,9.289834,-0.1005601,-1.450938,21.375,-3,0.625,-3.935681,-82.04939,175.6025,0.7525622,0.6545202,0.05105458,0.05144967
22266,0.1560266,-0.02136044,-0.6483459,0.1278969,0.002584749,-0.6624162,9.285046,-0.06225147,-1.470092,21.875,-2.25,0.375,-4.176941,-82.00061,175.8508,0.7528454,0.6542014,0.05121975,0.05119591
22278,0.1577137,-0.02130912,-0.6572036,0.1270738,0.003865224,-0.6671974,9.294622,-0.03830859,-1.436572,21.875,-1.75,0.25,-4.366993,-81.96401,176.0477,0.7530573,0.6539641,0.05134387,0.05098528
22289,0.1594542,-0.0212459,-0.6663068,0.1284608,0.004666185,-0.6718689,9.332932,-0.02873145,-1.273761,21.125,-1.625,0.375,-4.541406,-81.95677,176.2185,0.7530965,0.6539155,0.05151508,0.05085733
22301,0.1612064,-0.02119111,-0.6751831,0.1334905,0.004174202,-0.6762363,9.385606,0.02394287,-0.9816577,20,-2.375,0.625,-4.652961,-81.98682,176.3107,0.7529147,0.6541058,0.05172137,0.05089037
22313,0.1631018,-0.02116396,-0.6842523,0.1421913,0.002036762,-0.6803654,9.447857,0.1053486,-0.6943433,19.125,-4.125,1.125,-4.708529,-82.03992,176.3333,0.7525957,0.6544408,0.05195643,0.05106401
22324,0.165019,-0.02114164,-0.693008,0.1498756,0.001744885,-0.6844647,9.428702,-0.02873145,-0.7613833,18.75,-6,1.5,-4.960588,-82.05656,176.5499,0.7524821,0.6545368,0.0523738,0.05108261
22337,0.1672345,-0.02105445,-0.7031599,0.150601,0.005927116,-0.6900886,9.285046,-0.2633716,-1.355167,19.25,-7,0.625,-5.499546,-81.95367,177.0597,0.75305,0.653854,0.05301205,0.05079626
22349,0.1692086,-0.02088723,-0.7125866,0.1457436,0.01234557,-0.695953,9.17012,-0.4022402,-1.800504,20.75,-6,-0.75,-6.019321,-81.79903,177.5762,0.7539204,0.6528459,0.05350592,0.05033353
22360,0.1710193,-0.02066461,-0.7215056,0.1423721,0.01750432,-0.7012888,9.194062,-0.3543545,-1.719098,21.5,-4.625,-2.125,-6.298156,-81.68696,177.8621,0.7545552,0.6521182,0.05373272,0.05001213
22372,0.1728494,-0.02039147,-0.7306663,0.1411092,0.02105901,-0.7062965,9.251526,-0.2490059,-1.551498,21,-3.25,-3.375,-6.332363,-81.61964,177.897,0.7549378,0.6516759,0.05377233,0.04995939
22383,0.1746453,-0.02009013,-0.7398391,0.1392316,0.02336389,-0.7111865,9.251526,-0.1436572,-1.594595,20.125,-1.875,-4,-6.195424,-81.5647,177.749,0.7552511,0.651303,0.05372186,0.05014243
22395,0.176424,-0.01976668,-0.7492711,0.1350687,0.02456096,-0.7162259,9.222795,-0.02394287,-1.757407,19.375,-0.125,-4.25,-5.911108,-81.50534,177.4425,0.7555873,0.6508927,0.05359853,0.0505337
22406,0.1781004,-0.01943839,-0.7586142,0.1294149,0.02534272,-0.7212515,9.198852,0.03352002,-1.877121,19.375,2.125,-4.5,-5.55742,-81.45755,177.0669,0.7558581,0.6505584,0.05340498,0.05099304
22418,0.1796996,-0.0190962,-0.7680498,0.123109,0.02634275,-0.7263721,9.184485,0.03352002,-1.929795,19.625,4.625,-4.5,-5.206959,-81.43439,176.698,0.7559882,0.6503901,0.05318887,0.05143322
22429,0.1812367,-0.01872889,-0.7775393,0.118485,0.0283138,-0.7314849,9.20364,-0.05267432,-1.810081,19.875,6.875,-4.625,-4.927588,-81.46049,176.4049,0.755837,0.6505529,0.05300842,0.05178408
22440,0.1827526,-0.01834453,-0.7871181,0.1165558,0.02955191,-0.7364915,9.246737,-0.0191543,-1.585018,19.5,8.875,-4.75,-4.578245,-81.5476,176.0367,0.7553349,0.651117,0.05279453,0.05223521
22452,0.1842474,-0.01797875,-0.7967526,0.1149799,0.02813704,-0.7411147,9.285046,0.191543,-1.513189,19.125,10.375,-4.375,-4.021535,-81.66158,175.4536,0.7546733,0.6518571,0.0524452,0.0529161
22463,0.1857237,-0.0176526,-0.8065301,0.112556,0.0248667,-0.7454613,9.3042,0.3543545,-1.537132,18.75,11.375,-3.125,-3.389377,-81.78168,174.7872,0.7539656,0.6526397,0.05208884,0.05370133
22475,0.1871448,-0.01737772,-0.8161163,0.1111253,0.02149378,-0.7495686,9.328143,0.3687202,-1.441361,19,12,-1.75,-2.864579,-81.91933,174.231,0.753154,0.6535429,0.05182964,0.05435491
22486,0.1886128,-0.01713523,-0.8260071,0.111858,0.01847852,-0.7536966,9.361663,0.3160459,-1.254606,20.125,12,-0.25,-2.500495,-82.08944,173.8487,0.752163,0.6546629,0.05165572,0.05476302
22498,0.1900966,-0.01693395,-0.8359033,0.1136369,0.01541422,-0.7578719,9.37124,0.3112573,-1.144469,21.5,11.75,1,-2.24676,-82.26987,173.5938,0.7511203,0.655856,0.05149264,0.05495203
22509,0.191659,-0.01677594,-0.8463085,0.1144618,0.01157558,-0.7622815,9.361663,0.3687202,-1.182778,22.5,11.375,2.625,-2.08229,-82.44347,173.4398,0.7501237,0.6570046,0.05134325,0.05498393
22521,0.1931453,-0.01666669,-0.8564264,0.1126191,0.008278705,-0.7666844,9.328143,0.3639317,-1.359955,23.25,11.5,4.125,-2.10231,-82.58195,173.4789,0.7493372,0.6579202,0.05128697,0.05481385
22533,0.1945748,-0.01658339,-0.866572,0.1086956,0.006333512,-0.7714107,9.285046,0.2777373,-1.508401,23.625,12.25,5.5,-2.382453,-82.70518,173.7831,0.7486466,0.6587303,0.05140166,0.05441154
22544,0.1959088,-0.01650123,-0.8766375,0.1028853,0.006336814,-0.7762959,9.251526,0.1388687,-1.656847,23.125,14.125,6.75,-2.961728,-82.8275,174.3802,0.7479625,0.6595257,0.05177485,0.05382661
22557,0.1973123,-0.01640565,-0.8881423,0.09537219,0.00649439,-0.7817959,9.251526,0.1197144,-1.695155,22.75,16.5,7.5,-3.723544,-82.99111,175.1562,0.7470337,0.6605922,0.05229553,0.0531406
22569,0.1985537,-0.01632931,-0.8986624,0.09280873,0.005707845,-0.786492,9.318565,0.1245029,-1.340801,22.5,17.5,8,-4.432689,-83.20659,175.874,0.7457917,0.6620016,0.0527835,0.05255928
22581,0.1998216,-0.01625639,-0.9088444,0.09842994,0.005660566,-0.7904616,9.43828,-0.04309717,-0.6895547,21.375,16.875,8.125,-5.334019,-83.50423,176.7699,0.7440552,0.6639456,0.05344815,0.05197719
22592,0.2012427,-0.01617262,-0.9191791,0.1092046,0.006437622,-0.7941786,9.50532,-0.1867544,-0.2633716,20.125,14.5,7.75,-6.454186,-83.83258,177.8694,0.7421141,0.6660907,0.05428259,0.05141283
22603,0.2028205,-0.01608461,-0.9294528,0.1225105,0.006833455,-0.7977077,9.53884,-0.2106973,-0.009577149,19.625,10.25,7.375,-7.642347,-84.13121,179.0309,0.7403241,0.668049,0.05512563,0.05091193
22615,0.204614,-0.01599425,-0.9399491,0.1368801,0.006895879,-0.801062,9.562783,-0.2154858,0.09577148,19.875,5.375,6.875,-8.881815,-84.37704,-179.7532,0.7388249,0.669678,0.05592925,0.05040916
22626,0.2065309,-0.01591975,-0.9503821,0.1477788,0.005743804,-0.8043293,9.543629,-0.1005601,-0.1197144,19.625,0.5,6.375,-9.902444,-84.51563,-178.7596,0.7379503,0.6706101,0.05662301,0.05005417
22638,0.2085222,-0.01585685,-0.9609295,0.1526228,0.004821001,-0.8084155,9.43828,-0.06225147,-0.5746289,20.75,-2.875,6.375,-10.84342,-84.53384,-177.8314,0.73778,0.6707792,0.05723804,0.04959718
22649,0.2104868,-0.01579584,-0.9714557,0.1517351,0.004711957,-0.8129621,9.356874,-0.07182861,-1.024755,22.25,-4.375,6.375,-11.72448,-84.45906,-176.9437,0.7381551,0.6703662,0.05777124,0.04897856
22661,0.2123972,-0.01572556,-0.9821209,0.1464993,0.005389696,-0.8178878,9.294622,-0.09577148,-1.379109,23.25,-4.25,6.125,-12.53332,-84.32898,-176.115,0.7388518,0.6696097,0.05824472,0.04825547
22672,0.2142142,-0.01562732,-0.9928086,0.1399291,0.007565903,-0.8230794,9.256314,-0.2106973,-1.517978,24.375,-3.25,5.625,-13.3896,-84.19137,-175.2235,0.7395836,0.6688257,0.05868629,0.04737419
22684,0.2159713,-0.01549644,-1.003573,0.1351881,0.01006901,-0.8281652,9.275469,-0.2729487,-1.398264,25.75,-2,4.75,-14.20291,-84.09127,-174.3562,0.7400977,0.6682985,0.05897644,0.04641529
22695,0.2176871,-0.01534497,-1.014319,0.1329976,0.01174089,-0.8329105,9.318565,-0.2537944,-1.206721,25.625,-1,4.125,-14.90143,-84.03796,-173.6054,0.7403449,0.6680651,0.05916873,0.04557927
22706,0.2194314,-0.01515466,-1.025327,0.1327419,0.01448302,-0.8377774,9.328143,-0.3687202,-1.072641,24.5,-0.5,3.25,-15.67864,-84.01119,-172.7884,0.740418,0.6680112,0.05945804,0.04479892
22718,0.221193,-0.01491002,-1.036316,0.1351039,0.01876232,-0.842754,9.332932,-0.5315318,-0.8906748,24.375,-1.25,1.875,-16.52168,-84.00214,-171.905,0.7403738,0.6680861,0.05976665,0.04399438
22730,0.2231062,-0.01461447,-1.047867,0.1403752,0.02168586,-0.8475603,9.385606,-0.4597031,-0.6704004,22.375,-2.25,0.5,-17.1182,-84.01955,-171.2931,0.740197,0.6682881,0.06002873,0.04354284
22742,0.2250245,-0.01430741,-1.05916,0.1447398,0.02316704,-0.8520702,9.395183,-0.3543545,-0.7134976,19.875,-3.625,-0.25,-17.3922,-84.01492,-171.0375,0.7401764,0.6682892,0.06031437,0.04348335
22753,0.2269522,-0.01398892,-1.070394,0.1469937,0.02428618,-0.8565796,9.376028,-0.3064688,-0.8715205,18.75,-5,-0.875,-17.44253,-83.97005,-171.0202,0.7404113,0.6679953,0.06060066,0.04360078
22765,0.2288678,-0.01367273,-1.081558,0.1477641,0.02439019,-0.8611569,9.356874,-0.2106973,-0.9816577,18.25,-5.875,-1.5,-17.23428,-83.90169,-171.2679,0.7408144,0.6675117,0.06079224,0.04389164
22777,0.2310177,-0.01332108,-1.094306,0.1461413,0.02390351,-0.8665799,9.323354,-0.1388687,-1.158835,17,-5.75,-1.625,-16.83663,-83.79824,-171.7296,0.7414358,0.6667633,0.06104673,0.04441907
22789,0.2329191,-0.01300403,-1.105942,0.1424267,0.02374966,-0.8716087,9.294622,-0.1292915,-1.345589,16.5,-5.125,-1.625,-16.45844,-83.68481,-172.1729,0.7421096,0.6659532,0.061323,0.04493703
22801,0.234693,-0.01269358,-1.11725,0.1375096,0.02406532,-0.8765855,9.270679,-0.1436572,-1.470092,17.375,-4,-2,-16.08873,-83.57285,-172.594,0.7427787,0.6651596,0.0615134,0.04537237
22812,0.2364154,-0.01237285,-1.128748,0.1320778,0.02459385,-0.8817148,9.256314,-0.1484458,-1.522767,17.5,-2.25,-2.125,-15.74698,-83.47631,-172.9861,0.743355,0.6644692,0.06168853,0.04581038
22823,0.2380619,-0.01206384,-1.140155,0.1279697,0.02401764,-0.8865548,9.285046,-0.07182861,-1.426995,17.25,-1,-2.125,-15.35786,-83.4162,-173.4286,0.7437289,0.6640027,0.06179915,0.04635307
22835,0.2397072,-0.0117914,-1.151861,0.1252523,0.02074056,-0.8911631,9.328143,0.1245029,-1.292915,16.125,0.125,-1.625,-14.80081,-83.39547,-174.0571,0.7438912,0.663758,0.06184709,0.04718057
22846,0.2412956,-0.01157021,-1.163465,0.1225978,0.01707203,-0.8956559,9.332932,0.1676001,-1.288126,15.375,1.125,-0.5,-14.35003,-83.38782,-174.5891,0.7439572,0.6636091,0.06201012,0.04801536
22858,0.2428596,-0.01137566,-1.175167,0.1203209,0.01496677,-0.9002215,9.328143,0.04788574,-1.278549,16.75,1.25,0.375,-14.17552,-83.38038,-174.8267,0.7439947,0.6635054,0.06226076,0.0485395
22869,0.2444124,-0.0112156,-1.186903,0.1196752,0.01233538,-0.9045419,9.361663,0.07182861,-1.149258,16.25,1.25,1.125,-14.07523,-83.39322,-174.9971,0.743903,0.6635382,0.0625834,0.04907862
22881,0.2459433,-0.01108473,-1.198779,0.1171694,0.01001638,-0.9088633,9.347297,0.07182861,-1.292915,14.375,2,1.875,-14.05364,-83.39194,-175.1145,0.7438715,0.663475,0.06312409,0.04971421
22892,0.2473866,-0.01095144,-1.210634,0.111214,0.01027118,-0.913553,9.280257,-0.08140577,-1.589807,15.5,2.375,2,-14.22505,-83.34566,-175.0225,0.7440814,0.6631535,0.06375064,0.05006088
22904,0.2487886,-0.01082724,-1.222638,0.1072264,0.009499006,-0.9181483,9.308989,-0.02873145,-1.431784,19.125,1.75,1.25,-14.2512,-83.31916,-175.0289,0.7442162,0.6629676,0.0639835,0.05022505
22915,0.2501872,-0.01074127,-1.234468,0.1090374,0.006702266,-0.9221978,9.399971,0.05746289,-0.967292,21.625,0.75,1,-14.17935,-83.35564,-175.1006,0.7440158,0.6631941,0.06389595,0.05031395
22927,0.2516905,-0.01068357,-1.246575,0.1150075,0.004414279,-0.9262159,9.443069,-0.03830859,-0.6560347,23.125,-1.25,1.625,-14.3261,-83.41343,-174.9334,0.7436771,0.6635941,0.06382267,0.0501391
22938,0.2532823,-0.01061721,-1.258753,0.1216518,0.005071538,-0.930672,9.409549,-0.2777373,-0.6320918,25.25,-3.25,1.875,-14.81161,-83.44303,-174.3975,0.74347,0.6638722,0.06383803,0.04950597
22950,0.2549961,-0.01051005,-1.271487,0.1259362,0.007874332,-0.9357967,9.347297,-0.4118174,-0.8427891,23.875,-3.75,1.375,-15.40232,-83.42875,-173.7715,0.7434904,0.6638765,0.06406001,0.04885068
22962,0.2566513,-0.01038887,-1.283964,0.1248457,0.009140257,-0.9410638,9.285046,-0.2442173,-1.221087,20,-2.5,1.125,-15.65386,-83.373,-173.539,0.7437664,0.6635423,0.06440891,0.04873146
22973,0.2582227,-0.01028471,-1.296384,0.1197081,0.007934507,-0.9461284,9.265891,-0.009577149,-1.508401,20.25,-1,1.5,-15.59078,-83.2965,-173.6204,0.7442019,0.6630339,0.06455883,0.04880317
22985,0.2597365,-0.01025321,-1.308913,0.1148673,0.002390668,-0.9507293,9.313777,0.3160459,-1.446149,23.125,-0.375,2.625,-15.23659,-83.24509,-173.9591,0.7445498,0.6626642,0.06427507,0.04889333
22997,0.2613958,-0.01037427,-1.322733,0.1146254,-0.008363802,-0.9547588,9.433492,0.584206,-1.058275,26.25,-0.25,5,-14.8245,-83.26236,-174.3132,0.7445295,0.6627541,0.06362646,0.0488307
23009,0.2629466,-0.01057918,-1.335547,0.1159918,-0.01532599,-0.9583892,9.447857,0.3399888,-0.9720806,25.25,0.375,7.75,-15.1152,-83.29264,-173.982,0.7443367,0.6630085,0.06356651,0.04839544
23021,0.2644406,-0.01079001,-1.348003,0.1154775,-0.01629528,-0.9627624,9.352086,-0.09577148,-1.173201,24.75,0.5,8.875,-16.05944,-83.28017,-173.0022,0.7442914,0.6630794,0.06404458,0.04747954
23032,0.2659118,-0.01096191,-1.360572,0.1132928,-0.01323731,-0.967873,9.270679,-0.4070288,-1.345589,28.5,0.25,8,-17.25864,-83.22916,-171.7154,0.7444326,0.6629861,0.0644536,0.04599183
23044,0.2673638,-0.01108166,-1.37343,0.1099136,-0.009065257,-0.9733844,9.232371,-0.4980117,-1.446149,29.25,1.125,6.75,-18.40428,-83.17043,-170.4695,0.7446086,0.6628634,0.0647712,0.0444392
23055,0.2687539,-0.01116394,-1.386171,0.106774,-0.006319825,-0.9786271,9.251526,-0.4166059,-1.417418,21.75,3.5,6.5,-19.40376,-83.14983,-169.47,0.7445406,0.6629162,0.06551485,0.04369424
23067,0.2701142,-0.01125456,-1.398712,0.1066433,-0.007104801,-0.9832029,9.332932,-0.1963315,-1.144469,16.5,5,6.5,-20.17276,-83.19662,-168.77,0.7441037,0.6633214,0.06638414,0.04367515
23078,0.2715356,-0.01137635,-1.411568,0.1091978,-0.009355904,-0.987626,9.380817,-0.1292915,-0.9098291,16.5,5.375,6.375,-20.92199,-83.28639,-168.0915,0.7434272,0.6639949,0.06716697,0.04376581
23090,0.2730226,-0.01152414,-1.424645,0.1128164,-0.01121271,-0.9921553,9.385606,-0.1867544,-0.8188462,15.125,5.125,7.375,-21.89173,-83.38004,-167.2115,0.7426726,0.6647291,0.0681887,0.04385216
23101,0.2745306,-0.01169855,-1.437435,0.11748,-0.01358751,-0.9963564,9.414337,-0.1723887,-0.708709,14.125,3.875,8.375,-22.93053,-83.46607,-166.2735,0.7419347,0.6654286,0.06931379,0.04396961
23112,0.2761068,-0.011872,-1.450394,0.1217222,-0.01339506,-1.000807,9.385606,-0.3830859,-0.7613833,15.75,2,8.25,-24.17467,-83.50867,-165.1078,0.7413877,0.6659275,0.0705108,0.0437394
23124,0.2777354,-0.01199087,-1.463796,0.1222943,-0.008925949,-1.006375,9.265891,-0.675189,-1.082218,15.875,1.25,7,-25.54864,-83.47861,-163.8103,0.7411903,0.6660275,0.07192055,0.04326501
23135,0.2792491,-0.01205272,-1.476538,0.1202039,-0.004911835,-1.01184,9.227583,-0.641669,-1.288126,23,0.125,4.375,-26.36686,-83.41444,-162.9734,0.7413331,0.6658583,0.07249194,0.04246187
23147,0.2807931,-0.01208433,-1.489857,0.1179355,-0.002413871,-1.017324,9.246737,-0.5267432,-1.283338,34.5,-1.25,1.25,-26.64592,-83.34999,-162.5231,0.7416672,0.6656486,0.07182781,0.04101951
23158,0.2823396,-0.01211492,-1.503426,0.1165232,-0.00230546,-1.022389,9.299411,-0.3639317,-1.197144,36.25,-0.875,0.125,-26.62261,-83.31775,-162.3503,0.7419153,0.6655685,0.07074638,0.039689
23170,0.2838873,-0.01216975,-1.517213,0.1153113,-0.004084812,-1.027179,9.332932,-0.2298516,-1.163624,32,0.25,0.625,-26.52428,-83.31076,-162.3089,0.7420269,0.6655855,0.06988588,0.03883431
23182,0.2853923,-0.01221196,-1.5309,0.1135143,-0.003183333,-1.032341,9.285046,-0.4261831,-1.235452,28.375,1.25,1,-26.72841,-83.29364,-162.014,0.7420934,0.6655924,0.06953378,0.03806912
23193,0.2869063,-0.01220158,-1.544723,0.1136606,0.0007788537,-1.037696,9.275469,-0.6847661,-1.120526,26.625,1.875,-0.25,-27.2016,-83.29411,-161.4693,0.7419829,0.66577,0.06943322,0.03729271
23205,0.2883947,-0.01212136,-1.558076,0.1162469,0.006265607,-1.042885,9.285046,-0.8523662,-0.9433491,26.125,2,-2.25,-27.72788,-83.32169,-160.8776,0.7417087,0.6661248,0.06933538,0.03658792
23217,0.2901609,-0.01194639,-1.573449,0.1204752,0.01193468,-1.048648,9.308989,-0.8284234,-0.8427891,22.625,1.625,-4.25,-28.08,-83.37514,-160.5002,0.7413328,0.6665621,0.06928886,0.03632676
23230,0.2918594,-0.01175339,-1.587764,0.1249975,0.01420398,-1.05351,9.361663,-0.6129375,-0.7613833,18.875,0.75,-5.75,-27.94368,-83.44411,-160.6645,0.7409979,0.66692,0.06919425,0.03676943
23241,0.293503,-0.01156193,-1.601221,0.1292191,0.01505169,-1.057899,9.380817,-0.5028003,-0.742229,17.5,-0.375,-6.875,-27.5231,-83.50677,-161.1287,0.7407693,0.667152,0.06902535,0.0374772
23252,0.2952239,-0.01135893,-1.615018,0.1325068,0.01563106,-1.062366,9.376028,-0.4549146,-0.8140576,17.5,-1.5,-7.625,-26.87877,-83.54944,-161.8174,0.7407018,0.6672079,0.0687688,0.03828051
23264,0.2969555,-0.01114324,-1.628761,0.1344258,0.01674483,-1.066951,9.352086,-0.4644917,-0.9241948,18.375,-2.625,-8.625,-26.06755,-83.56267,-162.6606,0.7408321,0.6670569,0.06840295,0.03903897
23275,0.2987481,-0.01090019,-1.642865,0.1362181,0.01846912,-1.071721,9.342508,-0.4884346,-0.9481377,19.75,-3.625,-10.25,-25.06453,-83.56304,-163.6764,0.7410772,0.6668,0.06782907,0.03977085
23287,0.3005297,-0.01063854,-1.656794,0.1376913,0.02022131,-1.076507,9.332932,-0.4692803,-0.9768692,20.375,-4.125,-11.375,-23.92813,-83.55527,-164.8165,0.7413886,0.6664796,0.06712712,0.0405183
23298,0.3023258,-0.01037683,-1.67087,0.1379527,0.02010088,-1.081154,9.342508,-0.2873144,-1.058275,19.125,-4.375,-11.625,-22.50691,-83.5375,-166.2591,0.7417972,0.6660388,0.06635188,0.0415552
23310,0.3041012,-0.01014036,-1.684948,0.1369117,0.01823643,-1.085647,9.347297,-0.1101372,-1.149258,19.5,-4.375,-11.75,-20.85583,-83.50888,-167.928,0.7422915,0.6655077,0.06540806,0.04271625
23321,0.3058575,-0.00992896,-1.699129,0.1350406,0.01625388,-1.090365,9.323354,-0.06225147,-1.221087,20.375,-4.125,-11.625,-19.19401,-83.46838,-169.5967,0.7428289,0.6649355,0.06439238,0.04381402
