timestamp,posX,posY,posZ,velX,velY,velZ,accX,accY,accZ,gyroX,gyroY,gyroZ,yaw,pitch,roll,quatX,quatY,quatZ,quatW
26314,0,0,0,0,0,0,9.265891,-0.1484458,-1.532344,0.875,-3.625,-1,0,0,0,0,0,0,1
26331,0,0,0,0,0,0,9.131811,0.04788574,-1.474881,10.625,-4,-3.875,0,0,0,0,0,0,1
26344,0,0,0,0,0,0,9.141388,-0.05267432,-1.484458,16.5,-4.25,-5.5,0,0,0,0,0,0,1
26356,0,0,0,0,0,0,9.189274,-0.09098291,-1.498824,14.25,-3.875,-5.25,0,0,0,0,0,0,1
26369,0,0,0,0,0,0,9.275469,-0.07182861,-1.503612,11.125,-3.5,-4.625,0,0,0,0,0,0,1
26381,0,0,0,0,0,0,9.390394,-0.009577149,-1.494035,9.125,-3,-4.375,0,0,0,0,0,0,1
26394,0,0,0,0,0,0,9.467011,0.1340801,-1.479669,8.5,-2.25,-3.125,0,0,0,0,0,0,1
26406,0,0,0,0,0,0,9.419126,0.258583,-1.503612,11.25,-2,-1.875,0,0,0,0,0,0,1
26418,0,0,0,0,0,0,9.352086,0.3256231,-1.503612,18.5,-1.625,-1.375,0,0,0,0,0,0,1
26430,0,0,0,0,0,0,9.366451,0.3112573,-1.474881,26,-0.875,-1.5,0,0,0,0,0,0,1
26443,0,0,0,0,0,0,9.399971,0.2681602,-1.474881,32.875,-0.25,-1.625,0,0,0,0,0,0,1
26456,0,0,0,0,0,0,9.380817,0.1436572,-1.551498,38,0.875,-2.125,0,0,0,0,0,0,1
26468,0,0,0,0,0,0,9.419126,0.03352002,-1.527555,38.625,2.25,-2.75,0,0,0,0,0,0,1
26481,0,0,0,0,0,0,9.452645,-0.06225147,-1.551498,34.125,3,-3,0,0,0,0,0,0,1
26493,0,0,0,0,0,0,9.37124,-0.05746289,-1.575441,28.375,3.625,-3.375,0,0,0,0,0,0,1
26504,0,0,0,0,0,0,9.270679,0.02394287,-1.532344,23.5,4,-3.5,0,0,0,0,0,0,1
26517,0,0,0,0,0,0,9.218005,0.09098291,-1.508401,21.875,3.625,-3.75,0,0,0,0,0,0,1
26530,0,0,0,0,0,0,9.232371,0.06225147,-1.489247,25.75,2.5,-5.75,0,0,0,0,0,0,1
26542,0,0,0,0,0,0,9.313777,-0.04788574,-1.436572,28.25,1.375,-7.75,0,0,0,0,0,0,1
26555,0,0,0,0,0,0,9.414337,-0.1197144,-1.407841,25.875,-0.125,-8.75,0,0,0,0,0,0,1
26567,0,0,0,0,0,0,9.409549,-0.1388687,-1.436572,20.25,-1.625,-9,0,0,0,0,0,0,1
26579,0,0,0,0,0,0,9.37124,-0.05267432,-1.364744,17.125,-2.75,-9.75,0,0,0,0,0,0,1
26591,0,0,0,0,0,0,9.366451,0.009577149,-1.326435,18,-4,-10.75,0,0,0,0,0,0,1
26603,0,0,0,0,0,0,9.376028,-0.009577149,-1.345589,20.125,-5.375,-11.75,0,0,0,0,0,0,1
26615,0,0,0,0,0,0,9.342508,-0.07182861,-1.379109,17.875,-6.125,-11.875,0,0,0,0,0,0,1
26628,0,0,0,0,0,0,9.208428,-0.02394287,-1.412629,11.375,-6.375,-10.875,0,0,0,0,0,0,1
26641,0,0,0,0,0,0,9.098291,0.1005601,-1.403052,9.25,-6.625,-10,0,0,0,0,0,0,1
26653,0,0,0,0,0,0,9.079137,0.191543,-1.383898,13.125,-6.375,-9.75,0,0,0,0,0,0,1
26666,0,0,0,0,0,0,9.10308,0.2106973,-1.383898,16.625,-6.125,-8.75,0,0,0,0,0,0,1
26678,0,0,0,0,0,0,9.098291,0.2346401,-1.417418,16.625,-5.375,-6.125,0,0,0,0,0,0,1
26690,0,0,0,0,0,0,9.10308,0.3112573,-1.398264,16.125,-4.25,-3,0,0,0,0,0,0,1
26703,0,0,0,0,0,0,9.122234,0.3447773,-1.345589,19.25,-3.25,-0.625,0,0,0,0,0,0,1
26716,0,0,0,0,0,0,9.184485,0.3016802,-1.321646,25.125,-2.5,1,0,0,0,0,0,0,1
26728,0,0,0,0,0,0,9.256314,0.1292915,-1.326435,28.375,-1.625,1.75,0,0,0,0,0,0,1
26740,0,0,0,0,0,0,9.294622,-0.09577148,-1.340801,25.625,0,2.375,0,0,0,0,0,0,1
26753,0,0,0,0,0,0,9.332932,-0.1532344,-1.345589,18.25,1.625,3.125,0,0,0,0,0,0,1
26765,0,0,0,0,0,0,9.376028,-0.05267432,-1.350378,11.625,2.625,3.5,0,0,0,0,0,0,1
26777,0,0,0,0,0,0,9.352086,0.1101372,-1.359955,11.125,3.125,2.875,0,0,0,0,0,0,1
26790,0,0,0,0,0,0,9.3042,0.1628115,-1.369532,15,3.25,1.875,0,0,0,0,0,0,1
26802,0,0,0,0,0,0,9.261103,0.1292915,-1.398264,17.25,3.25,1.125,0,0,0,0,0,0,1
26814,0,0,0,0,0,0,9.246737,0.09098291,-1.436572,16.25,3.375,1,0,0,0,0,0,0,1
26827,0,0,0,0,0,0,9.313777,0.07661719,-1.436572,14.25,3.375,1.25,0,0,0,0,0,0,1
26839,0,0,0,0,0,0,9.385606,0.06225147,-1.441361,13,2.75,0.875,0,0,0,0,0,0,1
26851,0,0,0,0,0,0,9.414337,0.08140577,-1.460515,14,1.875,0,0,0,0,0,0,0,1
26864,0,0,0,0,0,0,9.395183,0.1149258,-1.441361,15.5,1,-0.375,0,0,0,0,0,0,1
26876,0,0,0,0,0,0,9.352086,0.1101372,-1.388687,16,-0.375,-0.375,0,0,0,0,0,0,1
26888,0,0,0,0,0,0,9.347297,0.09577148,-1.355167,15.125,-2.125,-0.25,0,0,0,0,0,0,1
26901,0,0,0,0,0,0,9.433492,0.09577148,-1.355167,13,-3.625,0.125,0,0,0,0,0,0,1
26913,0,0,0,0,0,0,9.486166,0.1388687,-1.379109,11,-5,0.625,0,0,0,0,0,0,1
26926,0,0,0,0,0,0,9.414337,0.2346401,-1.426995,10.5,-6.5,0.75,0,0,0,0,0,0,1
26939,0,0,0,0,0,0,9.323354,0.2873144,-1.474881,12.625,-7,0.25,0,0,0,0,0,0,1
26951,0,0,0,0,0,0,9.270679,0.2825259,-1.508401,15.5,-6.75,-0.25,0,0,0,0,0,0,1
26963,0,0,0,0,0,0,9.222795,0.2298516,-1.54671,15.625,-6.25,-0.125,0,0,0,0,0,0,1
26975,0,0,0,0,0,0,9.232371,0.2346401,-1.54671,14.25,-5.5,0.125,0,0,0,0,0,0,1
26987,0,0,0,0,0,0,9.366451,0.2825259,-1.527555,15.125,-4.875,-0.125,0,0,0,0,0,0,1
26999,0,0,0,0,0,0,9.476588,0.2442173,-1.570652,19.25,-4,-1.125,0,0,0,0,0,0,1
27012,0,0,0,0,0,0,9.519686,0.2106973,-1.541921,23,-2.875,-2.125,0,0,0,0,0,0,1
27025,0,0,0,0,0,0,9.610668,0.2011201,-1.479669,23.875,-2.5,-2.5,0,0,0,0,0,0,1
27037,0,0,0,0,0,0,9.629823,0.1723887,-1.479669,23,-2.25,-2.25,0,0,0,0,0,0,1
27050,0,0,0,0,0,0,9.524474,0.1867544,-1.441361,21.625,-1.875,-1.75,0,0,0,0,0,0,1
27062,0,0,0,0,0,0,9.452645,0.2298516,-1.412629,21.5,-1.75,-2,0,0,0,0,0,0,1
27074,0,0,0,0,0,0,9.40476,0.2202744,-1.450938,22.875,-1.875,-2.5,0,0,0,0,0,0,1
27086,0,0,0,0,0,0,9.352086,0.1676001,-1.484458,23.125,-2,-2.75,0,0,0,0,0,0,1
27099,0,0,0,0,0,0,9.275469,0.1197144,-1.522767,21.25,-2,-3.125,0,0,0,0,0,0,1
27112,0,0,0,0,0,0,9.213217,0.1436572,-1.513189,20,-2.125,-3.625,0,0,0,0,0,0,1
27125,0,0,0,0,0,0,9.232371,0.2011201,-1.498824,20.625,-2.625,-3.875,0,0,0,0,0,0,1
27137,0,0,0,0,0,0,9.323354,0.2202744,-1.513189,21.25,-3.5,-3.625,0,0,0,0,0,0,1
27149,0,0,0,0,0,0,9.428702,0.2106973,-1.489247,21.75,-4.25,-3.25,0,0,0,0,0,0,1
27161,0,0,0,0,0,0,9.53884,0.1771773,-1.484458,22.75,-5.125,-3.375,0,0,0,0,0,0,1
27174,0,0,0,0,0,0,9.615458,0.1292915,-1.513189,22.875,-6,-3.25,0,0,0,0,0,0,1
27186,0,0,0,0,0,0,9.567572,0.09577148,-1.556287,20.25,-6.75,-2.375,0,0,0,0,0,0,1
27198,0,0,0,0,0,0,9.428702,0.1245029,-1.589807,14.625,-7,-1,0,0,0,0,0,0,1
27211,0,0,0,0,0,0,9.323354,0.2633716,-1.537132,11.875,-7,-0.125,0,0,0,0,0,0,1
27223,0,0,0,0,0,0,9.280257,0.3639317,-1.484458,13.625,-7.75,0.25,0,0,0,0,0,0,1
27236,0,0,0,0,0,0,9.222795,0.3926631,-1.541921,19.125,-8,0.25,0,0,0,0,0,0,1
27248,0,0,0,0,0,0,9.222795,0.3735088,-1.54671,25.25,-7.625,0.125,0,0,0,0,0,0,1
27260,0,0,0,0,0,0,9.270679,0.3591431,-1.494035,28.5,-7.25,0.25,0,0,0,0,0,0,1
27272,0,0,0,0,0,0,9.289834,0.3304116,-1.484458,29.375,-6.875,0.625,0,0,0,0,0,0,1
27285,0,0,0,0,0,0,9.265891,0.292103,-1.470092,30.875,-6.125,0.25,0,0,0,0,0,0,1
27297,0,0,0,0,0,0,9.222795,0.2154858,-1.436572,31.25,-5.5,-0.125,0,-81.07848,174.7405,-0.7591606,-0.6492842,0.02982174,0.03486838
27322,0,0,0,0,0,0,9.241948,0.1628115,-1.417418,26,-4.125,-1.5,-0.1358241,-81.04538,175.0686,-0.7594115,-0.6491082,0.02885304,0.03347183
27334,0,0,0,0,0,0,9.265891,0.1532344,-1.417418,24.625,-3.5,-2,-0.1523612,-81.0393,175.1568,-0.7594671,-0.6490853,0.0284613,0.0329823
27345,0,0,0,0,0,0,9.246737,0.1340801,-1.426995,24.625,-3,-3,-0.1006368,-81.03735,175.1741,-0.759496,-0.6490914,0.02802029,0.0325755
27357,4.294274E-06,1.287198E-06,-7.792331E-05,0.000330278,9.899996E-05,-0.005993179,9.222795,0.1149258,-1.422207,24.375,-2.25,-4.125,0.03279707,-81.04424,175.1095,-0.7594709,-0.6491594,0.02750389,0.03224625
27370,1.675759E-05,7.028509E-06,-0.0002570007,0.0008567033,0.0003946461,-0.01230942,9.251526,0.1053486,-1.412629,22.375,-1.25,-4.75,0.2371218,-81.06807,174.954,-0.7593408,-0.6493376,0.02703769,0.03211288
27381,3.825944E-05,1.042151E-05,-0.0004649828,0.001726917,0.0002725084,-0.01670404,9.33772,0.1388687,-1.383898,20.625,-0.75,-5.125,0.4775552,-81.09936,174.7336,-0.7591581,-0.6495607,0.0267036,0.03220183
27392,7.444154E-05,6.245781E-06,-0.0007290019,0.002784309,-0.0003213336,-0.02031698,9.414337,0.1819658,-1.374321,19.75,-0.5,-5.375,0.791463,-81.13658,174.429,-0.758934,-0.649825,0.02636383,0.03242807
27404,0.0001221756,-9.463604E-06,-0.001042056,0.003605835,-0.001186689,-0.0236481,9.43828,0.2106973,-1.388687,19.625,-0.25,-5,1.103505,-81.1749,174.1243,-0.7587017,-0.6500975,0.02604062,0.03266338
27415,0.0001753993,-3.315338E-05,-0.001384597,0.004187221,-0.001863723,-0.0269484,9.428702,0.2059087,-1.398264,20.375,-0.25,-4.875,1.381874,-81.20909,173.8625,-0.758496,-0.650344,0.02569739,0.03280445
27426,0.0002336285,-6.040741E-05,-0.001782372,0.004471254,-0.002092761,-0.0305441,9.409549,0.1771773,-1.417418,20.875,-0.625,-4.875,1.62772,-81.23529,173.6405,-0.7583389,-0.650538,0.0253416,0.0328677
27438,0.000295082,-9.492697E-05,-0.002235947,0.004680389,-0.00262906,-0.03454488,9.380817,0.2059087,-1.412629,19.125,-0.875,-4.5,1.866595,-81.25767,173.402,-0.7581959,-0.6507022,0.02512521,0.03307995
27449,0.000359524,-0.0001488096,-0.002741552,0.00497929,-0.004163394,-0.039067,9.33772,0.2873144,-1.388687,16.625,-1.375,-3.125,2.061382,-81.27586,173.1729,-0.7580689,-0.6508288,0.0251463,0.03348123
27461,0.0004248488,-0.0002289277,-0.003300962,0.005082852,-0.006233902,-0.04352706,9.33772,0.3352002,-1.398264,16.875,-2,-2.125,2.206283,-81.28458,172.9957,-0.7579993,-0.6508902,0.02519903,0.0338268
27472,0.0004922246,-0.0003377519,-0.003928913,0.00514359,-0.008307822,-0.04793888,9.347297,0.3352002,-1.403052,20.25,-2.625,-1.75,2.310019,-81.28516,172.9028,-0.7579912,-0.6509042,0.02504082,0.03385178
27484,0.0005565865,-0.0004660404,-0.004613579,0.004911244,-0.009789277,-0.05224461,9.352086,0.292103,-1.431784,23.5,-3.125,-1.75,2.357984,-81.27569,172.9088,-0.7580571,-0.6508572,0.0246845,0.03354428
27495,0.0006154543,-0.0006025181,-0.005353188,0.004488931,-0.01040702,-0.05639845,9.361663,0.225063,-1.455727,24,-3.25,-1.375,2.300798,-81.26329,173.027,-0.7581496,-0.6507837,0.02438506,0.03309314
27507,0.0006700639,-0.0007434798,-0.00618383,0.003996312,-0.01031553,-0.0607861,9.356874,0.1676001,-1.465304,21.625,-3,-1.125,2.162506,-81.25391,173.1969,-0.7582223,-0.650718,0.02433059,0.03275894
27519,0.0007212696,-0.0008781858,-0.007043582,0.003868958,-0.01017801,-0.06496049,9.366451,0.158023,-1.441361,20.25,-2.875,-1,2.016762,-81.25095,173.3549,-0.7582528,-0.650691,0.02439604,0.03254205
27530,0.0007801116,-0.001007186,-0.007926717,0.004565996,-0.01001007,-0.06852911,9.414337,0.1484458,-1.383898,20.875,-2.875,-1.75,1.939129,-81.25713,173.4533,-0.7582292,-0.6507305,0.02435395,0.03232913
27543,0.0008595177,-0.001145831,-0.008988768,0.005391876,-0.009414392,-0.07211586,9.447857,0.1197144,-1.388687,21.5,-3,-2.625,1.902635,-81.26129,173.524,-0.7582179,-0.6507626,0.02419564,0.03206649
27555,0.0009392451,-0.001264648,-0.00999496,0.00600447,-0.008948401,-0.0757789,9.414337,0.1245029,-1.393475,19.375,-3.25,-2.625,1.873357,-81.25999,173.5559,-0.7582279,-0.6507526,0.02420792,0.03202261
27566,0.001021596,-0.001384379,-0.01103857,0.006342968,-0.009222115,-0.08038309,9.332932,0.1819658,-1.398264,17.125,-3.625,-2.5,1.889028,-81.25048,173.5126,-0.7582731,-0.650685,0.02434525,0.03222374
27578,0.001107833,-0.001514468,-0.01215668,0.006650539,-0.01003232,-0.08622731,9.23716,0.225063,-1.383898,19.125,-3.5,-3.25,2.014305,-81.24092,173.386,-0.7583182,-0.6506302,0.02423079,0.03235463
27589,0.001202227,-0.001652218,-0.01336319,0.007257708,-0.01059124,-0.09276542,9.189274,0.2059087,-1.355167,21.625,-3.25,-3.75,2.165409,-81.23767,173.2668,-0.7583345,-0.6506267,0.02390613,0.03228704
27602,0.001312287,-0.001800633,-0.01476044,0.007825669,-0.01055284,-0.09934966,9.222795,0.1628115,-1.369532,20.875,-2.75,-3.375,2.246431,-81.24119,173.21,-0.7583154,-0.6506608,0.02369418,0.03220122
27613,0.001419667,-0.001935859,-0.01612163,0.008280989,-0.0104285,-0.104973,9.256314,0.158023,-1.379109,19.375,-2.375,-3.125,2.296312,-81.24895,173.1629,-0.7582688,-0.650716,0.0236355,0.0322261
27625,0.001534978,-0.00206849,-0.01757731,0.008792275,-0.01011294,-0.1109932,9.232371,0.1436572,-1.369532,19.625,-1.625,-3.25,2.350333,-81.26724,173.1153,-0.7581625,-0.6508428,0.02355748,0.03222521
27636,0.001647065,-0.002186969,-0.01907489,0.00877807,-0.009278573,-0.1172824,9.194062,0.1053486,-1.403052,20.375,-0.5,-3.625,2.401459,-81.29311,173.0811,-0.7580175,-0.6510202,0.02342702,0.03214893
27903,0.001757598,-0.002291355,-0.02070249,0.008422866,-0.007954437,-0.1240272,9.17012,0.07182861,-1.422207,19.375,0.625,-3.875,2.448862,-81.33012,173.0388,-0.7578052,-0.6512694,0.02337337,0.03214165
16776973,0.001865023,-0.002387569,-0.02255814,0.007609032,-0.006814974,-0.1314381,9.155754,0.09577148,-1.441361,16.75,1.5,-3.75,2.522067,-81.37724,172.9337,-0.7575236,-0.6515795,0.02351177,0.03239734
27915,0.001959391,-0.002487599,-0.02461623,0.006346204,-0.006726968,-0.1384059,9.208428,0.1771773,-1.460515,15.5,2.5,-3.375,2.668164,-81.43714,172.734,-0.7571573,-0.6519747,0.02371411,0.03285548
16776985,0.002026498,-0.002587773,-0.02647042,0.00519006,-0.00774741,-0.1434021,9.289834,0.2681602,-1.460515,17.5,2.875,-3.25,2.880408,-81.49278,172.5,-0.7568181,-0.6523543,0.02367517,0.03316409
27927,0.002076391,-0.002710324,-0.02841283,0.003800235,-0.009334439,-0.1479477,9.328143,0.3160459,-1.470092,20.25,2.75,-2.875,3.107094,-81.54523,172.2865,-0.7565054,-0.6527214,0.02342494,0.03325422
16776996,0.002098986,-0.00285328,-0.03039931,0.001744256,-0.0110356,-0.1533487,9.251526,0.3304116,-1.503612,21.5,2.75,-1.625,3.229369,-81.59038,172.1922,-0.7562472,-0.6530342,0.0231824,0.03315447
27939,0.002083854,-0.003037266,-0.0326902,-0.001062701,-0.01292042,-0.1608776,9.1366,0.3304116,-1.517978,21.625,2.875,-0.25,3.230119,-81.63715,172.2226,-0.7559901,-0.6533488,0.02303259,0.0329226
16777009,0.002028932,-0.003241956,-0.03502342,-0.003974377,-0.01481218,-0.1688416,9.088714,0.3304116,-1.517978,23,2.75,0.875,3.124187,-81.68039,172.3767,-0.7557675,-0.6536334,0.02287887,0.0324862
27951,0.001931695,-0.003475109,-0.0374974,-0.00696838,-0.01670868,-0.1772955,9.059982,0.3208345,-1.513189,25.875,2.125,2,2.894065,-81.71631,172.6943,-0.7556067,-0.6538683,0.022605,0.03168468
16777022,0.00178789,-0.003735383,-0.04016374,-0.01005983,-0.01820736,-0.1865221,9.021674,0.2777373,-1.508401,26.875,1.625,2.75,2.533347,-81.74664,173.1586,-0.7554894,-0.6540611,0.02235025,0.03066668
27963,0.001614217,-0.003999178,-0.04281402,-0.01278698,-0.01942239,-0.1951322,9.036039,0.2490059,-1.494035,26,0.875,3.375,2.101719,-81.76856,173.6762,-0.7554175,-0.6541919,0.02225196,0.02970818
16777033,0.001418544,-0.004271553,-0.04546453,-0.01496654,-0.02083337,-0.2027315,9.093503,0.2537944,-1.465304,25.625,0.125,3.625,1.675634,-81.78516,174.1796,-0.7553688,-0.6542897,0.02219424,0.02881584
27975,0.001197901,-0.004569343,-0.0482526,-0.01655238,-0.02233983,-0.2091571,9.198852,0.2442173,-1.431784,26,-1,3.75,1.222499,-81.79461,174.7162,-0.7553599,-0.6543438,0.02212089,0.02786261
16777044,0.0009667972,-0.004874104,-0.05101477,-0.0178873,-0.02358828,-0.2137907,9.323354,0.2154858,-1.436572,25.125,-2,3.875,0.7437624,-81.79292,175.2645,-0.7554083,-0.654324,0.02214519,0.0269823
27988,0.0006988945,-0.005216841,-0.05399282,-0.01959212,-0.02506491,-0.2177885,9.385606,0.2154858,-1.470092,23,-2.75,4.25,0.2074536,-81.77677,175.8448,-0.755531,-0.6542059,0.02236301,0.02622246
16777055,0.0004099129,-0.005580047,-0.05696495,-0.02156418,-0.02710289,-0.2217846,9.376028,0.2490059,-1.494035,21.875,-3.375,4.375,-0.2803767,-81.74802,176.36,-0.7557157,-0.6540071,0.02263274,0.02561554
28000,0.0001167544,-0.005956304,-0.05983547,-0.023067,-0.02960562,-0.2258652,9.356874,0.2825259,-1.465304,22.625,-4.125,3.75,-0.6381541,-81.71456,176.7532,-0.7559229,-0.6537852,0.02274301,0.02506858
16777067,-0.0002368568,-0.006436929,-0.06324149,-0.02400293,-0.03262451,-0.2311984,9.323354,0.2777373,-1.412629,24.25,-5,2.875,-0.9547943,-81.67126,177.1355,-0.7561898,-0.6535066,0.02264517,0.02435656
28012,-0.0005710027,-0.006901503,-0.06642307,-0.02478644,-0.03446141,-0.2360045,9.328143,0.2011201,-1.422207,24.625,-6.125,1.875,-1.229186,-81.61588,177.4768,-0.7565233,-0.6531508,0.02250485,0.0236722
16777079,-0.0009007326,-0.0073597,-0.06949964,-0.02574405,-0.03577429,-0.2402076,9.352086,0.1628115,-1.455727,21.375,-6.75,1.25,-1.467283,-81.5518,177.7378,-0.756895,-0.6527302,0.0225858,0.02330843
28023,-0.0012444,-0.007851401,-0.07266218,-0.02656469,-0.03800735,-0.2444568,9.352086,0.2298516,-1.450938,15.625,-7.125,1.25,-1.628649,-81.48417,177.8469,-0.7572705,-0.6522718,0.02302696,0.0235075
16777091,-0.001601135,-0.008408819,-0.07594313,-0.02700085,-0.0421903,-0.248331,9.390394,0.3735088,-1.426995,12.5,-7.375,1.625,-1.670939,-81.41766,177.7924,-0.7576297,-0.6518117,0.02361356,0.0241091
28034,-0.001947231,-0.009019044,-0.07915945,-0.02695241,-0.04752162,-0.250473,9.519686,0.4740689,-1.412629,15.5,-7.625,1.25,-1.585035,-81.35575,177.6502,-0.7579691,-0.6513914,0.02385112,0.02456241
16777102,-0.002292091,-0.009702286,-0.08241425,-0.02653175,-0.05256515,-0.2504078,9.692075,0.450126,-1.422207,22.875,-7.625,-0.25,-1.405678,-81.29662,177.5115,-0.7583131,-0.6510093,0.02344886,0.02446286
28046,-0.002639601,-0.0104424,-0.08571285,-0.0262668,-0.05594199,-0.2493269,9.763903,0.3208345,-1.465304,27.25,-7.25,-1.5,-1.252159,-81.23796,177.4601,-0.7586661,-0.6506434,0.02272024,0.02393427
16777113,-0.002970626,-0.01117426,-0.088874,-0.02604858,-0.05759086,-0.248753,9.725595,0.1963315,-1.479669,26.25,-6.75,-2.375,-1.151296,-81.18688,177.4468,-0.7589732,-0.6503233,0.02212314,0.02345244
28058,-0.002970626,-0.01117426,-0.088874,0,0,0,9.6394,0.1484458,-1.441361,22.75,-6.375,-3,-1.03888,-81.14452,177.3797,-0.7592216,-0.6500525,0.02175486,0.02326151
16777125,-0.002970626,-0.01117426,-0.088874,0,0,0,9.543629,0.2011201,-1.398264,20.375,-6.5,-4.25,-0.7440501,-81.10104,177.1014,-0.7594673,-0.6497717,0.02137492,0.0234377
28070,-0.002970626,-0.01117426,-0.088874,0,0,0,9.4718,0.2633716,-1.403052,20.375,-6.875,-5.375,-0.3346605,-81.05415,176.7072,-0.7597274,-0.6494726,0.02088833,0.02373511
16777136,-0.002970626,-0.01117426,-0.088874,0,0,0,9.4718,0.2681602,-1.441361,20.75,-6.875,-6.75,0.1716882,-81.00152,176.2222,-0.7600154,-0.649142,0.02026816,0.02409096
28082,-0.002970626,-0.01117426,-0.088874,0,0,0,9.486166,0.2490059,-1.470092,20.375,-6.125,-8,0.7608097,-80.95287,175.6519,-0.7602723,-0.6488453,0.01957798,0.02454911
16777147,-0.002970626,-0.01117426,-0.088874,0,0,0,9.486166,0.2202744,-1.484458,20,-5.125,-8.875,1.375648,-80.91514,175.0523,-0.7604593,-0.6486273,0.01888053,0.02505788
28094,-0.002970626,-0.01117426,-0.088874,0,0,0,9.490954,0.1867544,-1.494035,20.5,-4.25,-10.25,2.10337,-80.88405,174.3501,-0.7605965,-0.6484694,0.01801276,0.0256109
16777159,-0.002970626,-0.01117426,-0.088874,0,0,0,9.557994,0.1867544,-1.508401,20.625,-3.125,-11.25,2.847016,-80.86731,173.6332,-0.7606431,-0.6484166,0.01712571,0.02616888
28105,-0.002970626,-0.01117426,-0.088874,0,0,0,9.701652,0.2537944,-1.513189,19.5,-1.625,-11.25,3.658355,-80.87035,172.8338,-0.7605591,-0.648508,0.0162659,0.02688212
16777171,-0.002970626,-0.01117426,-0.088874,0,0,0,9.802212,0.3399888,-1.532344,21.125,-0.5,-10.875,4.495938,-80.88445,172.028,-0.7604038,-0.648689,0.01527716,0.02748032
28117,-0.002970626,-0.01117426,-0.088874,0,0,0,9.759114,0.3447773,-1.517978,27.5,0.5,-10.625,5.396022,-80.91334,171.2536,-0.76017,-0.6489972,0.01371093,0.0275015
16777182,-0.002970626,-0.01117426,-0.088874,0,0,0,9.701652,0.2873144,-1.489247,33,1.125,-9.75,6.081122,-80.951,170.7523,-0.7599165,-0.6493516,0.01203714,0.02691619
28129,-0.002970626,-0.01117426,-0.088874,0,0,0,9.653766,0.2346401,-1.479669,33.25,1.75,-7.875,6.573859,-81.00086,170.4477,-0.7596146,-0.649764,0.01053938,0.02610124
16777193,-0.002970626,-0.01117426,-0.088874,0,0,0,9.60588,0.225063,-1.426995,31.25,2,-5.375,6.861352,-81.06488,170.3204,-0.759252,-0.6502382,0.009413113,0.02525918
28141,-0.002970626,-0.01117426,-0.088874,0,0,0,9.543629,0.2298516,-1.407841,30.625,1.625,-3.125,6.963967,-81.12852,170.3671,-0.758913,-0.6506823,0.008524734,0.02431078
16777204,-0.002970626,-0.01117426,-0.088874,0,0,0,9.481377,0.2346401,-1.426995,31.5,1.125,-1.375,6.916328,-81.18385,170.5744,-0.7586426,-0.6510496,0.00771268,0.02316143
28153,-0.002970626,-0.01117426,-0.088874,0,0,0,9.447857,0.2298516,-1.474881,33.125,0.625,-0.125,6.747735,-81.22571,170.9223,-0.7584644,-0.651314,0.006888055,0.02178066
16777215,-0.002970626,-0.01117426,-0.088874,0,0,0,9.452645,0.1819658,-1.517978,33.625,0.375,1.125,6.421117,-81.26048,171.4345,-0.7583443,-0.6515114,0.006166867,0.02021896
28165,-0.002970626,-0.01117426,-0.088874,0,0,0,9.500531,0.1532344,-1.532344,29.875,0,2.875,5.925786,-81.2915,172.0634,-0.7582505,-0.6516643,0.005893243,0.01885051
28175,-0.002970626,-0.01117426,-0.088874,0,0,0,9.543629,0.2106973,-1.484458,26,-0.625,4.75,5.333815,-81.32366,172.7369,-0.7581463,-0.6518157,0.006002338,0.01773844
28186,-0.002970626,-0.01117426,-0.088874,0,0,0,9.581937,0.2777373,-1.431784,26.75,-1.625,6.125,4.700261,-81.3506,173.4592,-0.758068,-0.6519369,0.006102358,0.01654702
28198,-0.002970626,-0.01117426,-0.088874,0,0,0,9.586726,0.2777373,-1.441361,29.5,-2.75,7.25,3.977742,-81.36121,174.3041,-0.7580861,-0.6519523,0.006081346,0.01506237
28209,-0.002970626,-0.01117426,-0.088874,0,0,0,9.596303,0.2825259,-1.441361,30.875,-3.625,9,3.125049,-81.36078,175.2945,-0.758166,-0.6518962,0.006087673,0.01336085
28221,-0.002970626,-0.01117426,-0.088874,0,0,0,9.677709,0.2681602,-1.465304,31.625,-4.5,10.5,2.131716,-81.34642,176.436,-0.7583183,-0.6517546,0.006162271,0.01146335
28232,-0.002970626,-0.01117426,-0.088874,0,0,0,9.792634,0.1867544,-1.517978,32.875,-5.125,11.625,0.9911354,-81.31732,177.7399,-0.7585398,-0.6515298,0.006289435,0.009326406
28244,-0.002970626,-0.01117426,-0.088874,0,0,0,9.874041,0.1005601,-1.517978,33.375,-5.25,12.125,-0.2414155,-81.28578,179.1431,-0.758751,-0.6513106,0.006469376,0.007046499
28256,-0.002970626,-0.01117426,-0.088874,0,0,0,9.965023,-0.01436572,-1.537132,31.5,-5.5,12.25,-1.610832,-81.2446,-179.334,-0.7589837,-0.6510561,0.006885266,0.004740519
28268,-0.002970626,-0.01117426,-0.088874,0,0,0,10.02727,-0.05267432,-1.541921,25.875,-5.625,12.75,-2.94813,-81.20007,-177.9241,-0.7591985,-0.6508062,0.007744057,0.002988789
28279,-0.002970626,-0.01117426,-0.088874,0,0,0,10.08474,0.009577149,-1.522767,19.625,-5.75,13.75,-4.241952,-81.15504,-176.6418,-0.7593858,-0.6505751,0.009050633,0.001823275
28292,-0.002967368,-0.01122362,-0.088765,0.0002213016,-0.003352093,0.007403862,10.17093,0.1149258,-1.565864,19,-6.125,14.125,-5.58202,-81.09055,-175.3262,-0.7596506,-0.6502463,0.01049618,0.00067838
28304,-0.002956358,-0.01132648,-0.08855586,0.0008267784,-0.007724376,0.01570376,10.29543,0.1819658,-1.561075,27.125,-6.375,13,-6.586664,-81.0325,-174.2355,-0.7598829,-0.6499663,0.0110042,-0.0008892012
28315,-0.002931869,-0.01148902,-0.08823188,0.001887477,-0.01252835,0.0249716,10.39121,0.191543,-1.54671,37.625,-6.5,11.625,-7.406047,-80.97921,-173.195,-0.7600871,-0.6497273,0.01057567,-0.003181181
28327,-0.002906392,-0.01172614,-0.08774877,0.001817444,-0.01691531,0.0344634,10.33853,0.1005601,-1.637692,46.375,-6.375,10.5,-8.225832,-80.90764,-172.0118,-0.7603676,-0.6493936,0.009365723,-0.006442069
28339,-0.002881615,-0.0119978,-0.08720586,0.001919512,-0.02104578,0.04205989,10.25234,0.07661719,-1.618538,48.75,-5.625,10.5,-8.967355,-80.85118,-170.9052,-0.7605491,-0.6491587,0.008068626,-0.009635772
28350,-0.002857885,-0.01232553,-0.08657594,0.001816306,-0.02508432,0.04821484,10.13262,0.03352002,-1.623327,47.625,-5.625,11.5,-9.792306,-80.78665,-169.7265,-0.760739,-0.6488936,0.006933943,-0.01285369
28362,-0.00283568,-0.01271569,-0.08588111,0.001708056,-0.03001238,0.05344855,10.06558,0.07182861,-1.623327,47.125,-6.375,11.875,-10.55174,-80.71073,-168.6226,-0.7609797,-0.6485531,0.005812386,-0.01596902
28373,-0.002818783,-0.01316454,-0.08511967,0.001292351,-0.03432887,0.05823609,10.02249,-0.009577149,-1.652058,49.375,-7.375,10.75,-11.23111,-80.61671,-167.5654,-0.761306,-0.6480914,0.004458686,-0.01926078
28385,-0.002812945,-0.01363219,-0.08430269,0.0004557311,-0.03650941,0.06378163,10.07516,-0.2059087,-1.704732,47,-7.875,9.5,-11.90644,-80.51034,-166.5473,-0.7616839,-0.6475549,0.003330162,-0.02234715
28396,-0.002825114,-0.0141166,-0.08337371,-0.0009259392,-0.0368597,0.07068806,10.15178,-0.3878745,-1.766984,36.375,-7.25,9.25,-12.68871,-80.39758,-165.5512,-0.7620746,-0.6470103,0.003062957,-0.02470759
28408,-0.002852329,-0.01459396,-0.08236573,-0.002088959,-0.03664134,0.07737061,10.13741,-0.4597031,-1.757407,15.25,-5.5,10.625,-13.61944,-80.30255,-164.6852,-0.7623725,-0.6466259,0.004507942,-0.0253553
28419,-0.00288,-0.01509481,-0.08127119,-0.002123471,-0.03843546,0.0839952,10.15178,-0.3256231,-1.68079,-6.875,-3.625,13.125,-14.64628,-80.23875,-164.0164,-0.7625195,-0.6464704,0.007667547,-0.02411243
28430,-0.002896621,-0.01566844,-0.08009563,-0.00129519,-0.04469907,0.09160393,10.26191,0.009577149,-1.632904,-18.75,-1.25,14.375,-15.52154,-80.22278,-163.652,-0.7624595,-0.646573,0.01146258,-0.02162456
28442,-0.002882459,-0.01638869,-0.07878625,0.00108445,-0.05515379,0.1002667,10.36726,0.3160459,-1.517978,-10.25,1.125,12.375,-16.09409,-80.27353,-163.4903,-0.7620934,-0.6470196,0.01427173,-0.0193823
28453,-0.002809788,-0.01726798,-0.0773539,0.005584079,-0.06756469,0.1100624,10.49177,0.4692803,-1.350378,16.125,2.625,6.875,-16.21443,-80.39238,-163.4318,-0.761429,-0.6478102,0.01453519,-0.01888594
28466,-0.002652565,-0.01850927,-0.07548235,0.0102345,-0.08080254,0.1218302,10.49656,0.3878745,-1.369532,52.75,3.75,-1.125,-15.74681,-80.57391,-163.399,-0.7604962,-0.6488963,0.01093098,-0.02143665
28480,-0.002466616,-0.019789,-0.07353035,0.01271533,-0.087509,0.1334791,10.49177,-0.01436572,-1.470092,70.75,5.75,-5.75,-15.29004,-80.75595,-163.1067,-0.7594857,-0.6499909,0.00593282,-0.02565399
28492,-0.002285871,-0.02102387,-0.07147069,0.01286812,-0.08791625,0.1466368,10.59233,-0.4644917,-1.599384,56.375,9,-3.625,-15.47707,-80.92489,-162.4007,-0.7583961,-0.6511431,0.002869942,-0.02897766
28504,-0.00210043,-0.02225623,-0.06919903,0.0132184,-0.08784394,0.1619252,10.75035,-0.517166,-1.561075,29.5,13.625,0.5,-16.20278,-81.13889,-161.5392,-0.7570012,-0.6527125,0.002381612,-0.03016423
28517,-0.001879156,-0.02351712,-0.06673435,0.0160088,-0.09122307,0.1783161,10.88922,-0.2681602,-1.355167,19.5,16,1,-16.88526,-81.41343,-160.8646,-0.7553281,-0.6546452,0.00252179,-0.03021216
28528,-0.001622603,-0.02479189,-0.06417014,0.01949788,-0.09688172,0.1948782,10.98499,-0.07182861,-1.254606,31.125,16.375,-3.875,-17.01281,-81.71592,-160.5888,-0.7536212,-0.6565896,0.001202209,-0.03072269
28541,-0.001316781,-0.02624118,-0.06118998,0.02171728,-0.102918,0.2116293,10.90837,-0.04309717,-1.297704,57.75,15.25,-13.625,-16.14515,-82.05557,-160.9135,-0.7518622,-0.6584892,-0.00328091,-0.03292904
28552,-0.001045083,-0.02763411,-0.05824068,0.02074659,-0.1063631,0.2252063,10.72641,-0.1771773,-1.455727,71.25,14.25,-20.75,-14.68176,-82.34958,-161.6878,-0.7504089,-0.659946,-0.008952869,-0.03574397
28564,-0.0008185472,-0.02910225,-0.05498898,0.01656692,-0.1073674,0.2378018,10.58275,-0.3447773,-1.618538,55.5,14.625,-19.125,-13.37954,-82.611,-162.4863,-0.7490958,-0.6612604,-0.0133166,-0.03758741
28576,-0.0006523597,-0.03054219,-0.05167519,0.01255761,-0.1088061,0.2503992,10.62106,-0.2825259,-1.585018,22.625,15.375,-13,-12.65349,-82.84845,-163.1653,-0.7479097,-0.6626111,-0.01452144,-0.03696933
28587,-0.000521585,-0.03200381,-0.04826631,0.01014702,-0.1134085,0.2645004,10.78866,-0.004788574,-1.465304,2,15.875,-7.125,-12.27505,-83.08652,-163.7698,-0.7467225,-0.6640773,-0.01385981,-0.034853
28600,-0.0003944434,-0.0337881,-0.04406903,0.008649087,-0.1213809,0.2855292,11.14301,0.2059087,-1.383898,2.25,15.125,-5.375,-11.79103,-83.36005,-164.5105,-0.7453477,-0.6657571,-0.01312264,-0.03243685
28612,-0.0003077289,-0.0354892,-0.03997817,0.006494015,-0.1273943,0.3063625,11.26752,0.1340801,-1.412629,19.625,13.625,-8.125,-11.04951,-83.58644,-165.2498,-0.7441887,-0.6670742,-0.01396585,-0.03162726
28624,-0.00027404,-0.03732981,-0.03543901,0.002413764,-0.1318773,0.325225,11.04724,0.03352002,-1.479669,39,12.125,-12.875,-9.697666,-83.79477,-166.3239,-0.7431228,-0.6681669,-0.01675649,-0.03226126
28636,-0.0003276948,-0.03908558,-0.03103326,-0.004125391,-0.1349967,0.3387474,10.71683,-0.02873145,-1.628115,46.625,11.5,-14.375,-8.221724,-83.95013,-167.4403,-0.7423187,-0.6689126,-0.01999461,-0.03345483
28647,-0.0004954208,-0.04085175,-0.02652186,-0.01296583,-0.1365315,0.3487478,10.4343,-0.1388687,-1.752618,39.375,12,-12.375,-7.078302,-84.07269,-168.3204,-0.7416623,-0.6695214,-0.02238989,-0.03430553
28658,-0.0007870371,-0.04263178,-0.0218885,-0.02239929,-0.1367255,0.3558923,10.20924,-0.2298516,-1.743041,20.125,13.5,-7.5,-6.681782,-84.19151,-168.7049,-0.7410132,-0.6702395,-0.02282539,-0.03402019
28670,-0.00117675,-0.04443831,-0.01716579,-0.02994569,-0.1388142,0.3628941,10.21882,-0.06225147,-1.585018,4,14.625,-3.125,-6.675359,-84.33715,-168.913,-0.7402306,-0.67121,-0.02178997,-0.03257505
28681,-0.001625743,-0.04637348,-0.01227702,-0.03427688,-0.147734,0.3732172,10.50134,0.4932232,-1.369532,13.625,14.5,-3.5,-5.880616,-84.52962,-169.7878,-0.7392082,-0.6723852,-0.02196875,-0.03141529
28693,-0.002097012,-0.04841429,-0.007329904,-0.03683515,-0.1595132,0.3866748,10.77908,0.7709605,-1.259395,53.375,12,-10.25,-3.75058,-84.71843,-171.4841,-0.738138,-0.6733524,-0.02588464,-0.03284622
28704,-0.002630694,-0.05060567,-0.002053584,-0.04066767,-0.1669882,0.4020666,10.88922,0.4405488,-1.321646,92,8,-16.625,-0.9848844,-84.84728,-173.2913,-0.7372244,-0.6737976,-0.03313718,-0.03740204
28716,-0.00324596,-0.05279368,0.003362577,-0.04716128,-0.1677149,0.4151587,10.70246,-0.08140577,-1.450938,94.375,5.375,-15.625,0.9307539,-84.90211,-174.2199,-0.7366149,-0.6737773,-0.04001536,-0.04267613
28727,-0.003952412,-0.05493956,0.008892904,-0.05426731,-0.1648396,0.4248215,10.43909,-0.3639317,-1.436572,75.5,3.75,-11.25,1.775519,-84.92029,-174.326,-0.7362373,-0.6736026,-0.04482523,-0.04695693
28739,-0.004731785,-0.05700494,0.01441719,-0.0608267,-0.1611939,0.431147,10.19487,-0.4261831,-1.369532,60.25,2.375,-9.25,2.219237,-84.92129,-174.2386,-0.7360146,-0.6733853,-0.04818933,-0.05012589
28750,-0.005613705,-0.05907793,0.02015071,-0.06708656,-0.1576897,0.4361417,10.08474,-0.4022402,-1.326435,54.75,1,-10.75,2.944921,-84.91038,-174.4909,-0.7358761,-0.6730997,-0.05136583,-0.05277079
28762,-0.006576579,-0.06108184,0.02588858,-0.07398757,-0.1539811,0.4408997,10.06558,-0.4213945,-1.379109,55.625,-0.125,-14.25,4.153507,-84.88067,-175.2172,-0.7358329,-0.6726758,-0.05485879,-0.05520562
28773,-0.007647756,-0.0630562,0.03174478,-0.0814769,-0.1501758,0.4454404,10.04164,-0.4166059,-1.422207,54.25,-1.125,-17.875,5.893631,-84.83324,-176.4859,-0.7358738,-0.6721441,-0.05858989,-0.05726635
28784,-0.008793189,-0.0649452,0.03749255,-0.0893962,-0.1474281,0.4485885,9.936292,-0.3304116,-1.484458,43.25,-1.875,-18,7.686845,-84.76453,-177.9607,-0.7360823,-0.6715699,-0.06147342,-0.05829144
28796,-0.0100663,-0.06687985,0.04336784,-0.09733994,-0.14792,0.4492159,9.735171,-0.05267432,-1.513189,31.125,-2.125,-16.625,9.684632,-84.6798,-179.7943,-0.736421,-0.6710101,-0.06360003,-0.0581769
28807,-0.01140874,-0.06883675,0.04911182,-0.104041,-0.1516627,0.4451667,9.376028,0.2442173,-1.450938,28.625,-2.25,-16.5,12.01798,-84.59093,178.0003,-0.7367379,-0.6705053,-0.06574332,-0.05760061
28820,-0.01303661,-0.07113808,0.05551062,-0.1108378,-0.1566914,0.4356775,9.045617,0.3447773,-1.388687,39.875,-1.875,-19,15.11599,-84.48605,175.2146,-0.7369207,-0.6699198,-0.06946369,-0.05770905
28832,-0.01457322,-0.07324592,0.06117702,-0.1158912,-0.1589747,0.4273626,9.074348,0.2298516,-1.288126,58.625,-0.25,-24,18.27737,-84.41541,172.5885,-0.7366797,-0.6695092,-0.07452753,-0.05921198
28843,-0.01613938,-0.07528248,0.06672803,-0.1200582,-0.1561183,0.4255278,9.577148,-0.1005601,-1.197144,70.5,2,-28,21.33672,-84.38878,170.2165,-0.7360158,-0.6693297,-0.08036953,-0.06180048
28855,-0.01775805,-0.07720506,0.0723047,-0.1243699,-0.1477204,0.4284801,9.960235,-0.483646,-1.144469,65.625,3.75,-28.875,23.93335,-84.39713,168.246,-0.7351738,-0.6693789,-0.08551338,-0.06433362
28866,-0.01943162,-0.078982,0.07788707,-0.1289846,-0.1369504,0.4302407,9.878829,-0.641669,-1.101372,50.25,5.75,-28.875,26.31176,-84.43221,166.2938,-0.7342735,-0.6697331,-0.08928792,-0.06578571
28878,-0.02116144,-0.08063793,0.08344634,-0.1330422,-0.1273603,0.42757,9.543629,-0.5123774,-1.024755,42.125,7.75,-31,29.20001,-84.47713,163.728,-0.733215,-0.6703764,-0.09267955,-0.06634721
28889,-0.02293488,-0.08218581,0.08891723,-0.136052,-0.1187483,0.4197072,9.155754,-0.3782974,-0.900252,53.25,9,-38.5,33.30943,-84.49844,160.0909,-0.7318097,-0.671127,-0.09760506,-0.06720516
28901,-0.02474769,-0.08359705,0.09422182,-0.1391687,-0.1083398,0.4072309,8.815765,-0.4644917,-0.8140576,70,10,-47.875,38.42655,-84.47239,155.6703,-0.7300559,-0.6718377,-0.10442,-0.06891395
28912,-0.02658292,-0.08484286,0.09927906,-0.1423105,-0.09660478,0.3921564,8.619433,-0.5123774,-0.7374405,73,12,-54.125,44.11998,-84.40865,150.7099,-0.72801,-0.6727083,-0.11176,-0.07053187
28924,-0.02845053,-0.08595617,0.1042458,-0.1427502,-0.08509615,0.379637,8.849285,-0.3352002,-0.517166,60.875,14.125,-56.25,50.48913,-84.32042,144.9252,-0.7255701,-0.674147,-0.1185087,-0.07092037
28935,-0.03031911,-0.08691242,0.1091291,-0.1438478,-0.0736142,0.3759258,9.519686,-0.225063,-0.5746289,41,15.125,-54.625,56.4888,-84.18324,139.2466,-0.7232649,-0.6758319,-0.1235896,-0.0697476
28946,-0.03227128,-0.08772915,0.1140222,-0.1501094,-0.06280079,0.3762426,9.807,-0.1771773,-0.9577149,9.875,16.125,-49.625,61.36578,-84.00371,134.2858,-0.721541,-0.677584,-0.1258935,-0.06640206
28958,-0.03430485,-0.08843567,0.1188068,-0.1573727,-0.05467582,0.3702694,9.3042,0.03830859,-1.019966,-19.25,17.625,-44.125,65.56078,-83.81959,129.6287,-0.7201036,-0.6796657,-0.125634,-0.06100511
28969,-0.03643187,-0.08909987,0.1234562,-0.1628404,-0.05084942,0.3559506,8.648165,0.4213945,-0.8858863,-42,18.375,-38.125,69.48889,-83.62556,124.9322,-0.7187176,-0.6821417,-0.1234173,-0.05381431
28981,-0.03861274,-0.08978654,0.1278994,-0.1666057,-0.0524572,0.3394338,8.442257,0.9146177,-0.8044805,-52,17.625,-32.375,73.101,-83.39304,120.4137,-0.7173778,-0.6846782,-0.120386,-0.04573968
28992,-0.0408252,-0.09058899,0.1321492,-0.1684918,-0.06111099,0.3236456,8.437468,1.551498,-0.742229,-41.25,15.375,-28.25,76.4026,-83.07837,116.3381,-0.7160358,-0.6868826,-0.1184325,-0.03819418
29005,-0.04311961,-0.09158713,0.1363763,-0.1677075,-0.07295886,0.3089771,8.533239,1.891487,-0.5602632,-8.625,11.25,-27.625,79.39247,-82.68141,112.983,-0.7145945,-0.6885135,-0.1192661,-0.03285602
29016,-0.04529895,-0.0926158,0.1403086,-0.1664506,-0.07856599,0.3003357,8.988154,1.585018,-0.4309717,16.875,6.25,-25.625,81.3557,-82.3658,111.0012,-0.7134829,-0.6893974,-0.12144,-0.03042624
29028,-0.04747245,-0.09360521,0.1442312,-0.1669874,-0.07601459,0.3013692,9.797423,1.072641,-0.4597031,13.125,0.625,-17.5,82.11001,-82.21938,110.1752,-0.7130598,-0.6897944,-0.1220315,-0.02894489
29040,-0.04992913,-0.09465333,0.1487271,-0.1673942,-0.07141765,0.3063436,10.07037,0.9960235,-0.4357603,-8.25,-6.375,-5,81.7378,-82.21306,110.1422,-0.7134668,-0.6899071,-0.1195538,-0.02646175
29052,-0.0521706,-0.09558148,0.1527733,-0.168367,-0.06971727,0.3039242,9.529263,1.087006,-0.5123774,-22.375,-15.125,4.125,80.22614,-82.25303,111.0887,-0.7147654,-0.689345,-0.1155927,-0.02350102
29064,-0.05438373,-0.09652875,0.1565859,-0.1696532,-0.07261532,0.2922689,8.777456,1.316858,-0.5985718,-28,-21.625,11.125,77.91952,-82.28291,112.7602,-0.7166879,-0.6881965,-0.1110578,-0.02025508
29075,-0.05660715,-0.09756802,0.1601452,-0.1716,-0.08020964,0.2747025,8.269868,1.589807,-0.7278633,-23.875,-26.375,16.625,75.01762,-82.27467,115.0787,-0.7190797,-0.6864481,-0.1068324,-0.01732633
29086,-0.05886918,-0.09874106,0.163431,-0.1742836,-0.09037977,0.2531578,7.939456,1.719098,-0.8475776,-4.625,-28.75,19.5,71.79417,-82.2264,117.9642,-0.7217176,-0.6841303,-0.104098,-0.01591169
29099,-0.06133172,-0.1001369,0.1666112,-0.1751575,-0.09928674,0.2262036,7.709605,1.541921,-0.7230747,24.625,-29.375,18.875,68.44152,-82.17007,121.3595,-0.7243887,-0.6813673,-0.1034857,-0.01704313
29111,-0.06375276,-0.1015778,0.1693491,-0.1731421,-0.1030407,0.1958048,7.513273,1.158835,-0.4980117,48.375,-29.5,17.25,65.30589,-82.15155,124.8685,-0.7267063,-0.6786339,-0.1045544,-0.02055172
29124,-0.06616268,-0.1029833,0.1716827,-0.1715612,-0.1000569,0.1661297,7.632987,0.641669,-0.5028003,53.125,-28.625,18,61.80261,-82.21127,128.8168,-0.7289585,-0.6759353,-0.1053276,-0.02523985
29135,-0.06838218,-0.1041936,0.1734952,-0.1726831,-0.0941695,0.1410184,7.805376,0.3256231,-0.7134976,42.375,-26.75,19.75,58.171,-82.2906,132.7219,-0.7311125,-0.6735316,-0.1047893,-0.02913626
29146,-0.07066677,-0.1053588,0.1749807,-0.1744759,-0.08898553,0.1134468,7.642565,0.3064688,-0.7996919,22.125,-23.875,22.125,54.42455,-82.37309,136.4826,-0.7332188,-0.6714762,-0.1025319,-0.03157786
29158,-0.07294197,-0.106497,0.1760635,-0.1750292,-0.08755962,0.08330165,7.407925,0.5363203,-0.7709605,0.625,-21.875,26,50.85471,-82.44501,139.7833,-0.735164,-0.6699007,-0.09865493,-0.0321597
29171,-0.0755856,-0.1078966,0.1767891,-0.1755631,-0.09295235,0.0481845,7.350461,0.9481377,-0.8763091,-13.25,-20.25,30.125,46.95655,-82.4734,143.1542,-0.7373813,-0.6682934,-0.09316992,-0.03117835
29183,-0.07803962,-0.109317,0.1770189,-0.1765225,-0.1021672,0.01652566,7.374404,1.211509,-0.9960235,1,-18.75,28.375,43.91938,-82.42568,145.9013,-0.7392646,-0.6666816,-0.08979185,-0.03099635
29195,-0.08032986,-0.1107485,0.1768454,-0.1766073,-0.110389,-0.01337657,7.35525,1.163624,-0.9577149,26.875,-17.75,23,41.6646,-82.35007,148.2244,-0.7407165,-0.6650959,-0.08901377,-0.03260674
29206,-0.08263555,-0.1122352,0.1762556,-0.1761957,-0.113612,-0.04506834,7.278633,0.7470176,-0.8715205,42.25,-16.875,19.125,39.4011,-82.30135,150.7643,-0.7419441,-0.6635308,-0.08926672,-0.03573988
29219,-0.08511367,-0.1137746,0.1751875,-0.1776559,-0.1103575,-0.07657379,7.465387,0.2106973,-0.967292,24.625,-15.25,21,36.16648,-82.3075,154.0534,-0.7433438,-0.6620766,-0.0873074,-0.03836786
29230,-0.08745823,-0.1151429,0.1738845,-0.1808375,-0.1055381,-0.1004983,7.867628,0.0191543,-1.154046,-9.375,-13,25.75,32.5779,-82.33561,157.2513,-0.7447892,-0.6610746,-0.08238383,-0.03850102
29242,-0.08987836,-0.1164875,0.1723121,-0.185039,-0.1028031,-0.1202291,8.178885,0.1340801,-1.316858,-40.875,-10.375,29.375,28.87147,-82.36028,160.148,-0.7462645,-0.6604386,-0.07490681,-0.03604354
29253,-0.09229979,-0.117823,0.1705089,-0.187635,-0.1034936,-0.139725,8.174096,0.3735088,-1.249818,-52.25,-8.875,29.375,25.65147,-82.37834,162.419,-0.7474856,-0.660103,-0.06696158,-0.03233567
29264,-0.09473375,-0.1192316,0.1683863,-0.187228,-0.1083517,-0.1632828,7.886782,0.6847661,-1.029544,-46.75,-9.5,26.25,23.23981,-82.3762,163.9432,-0.7484286,-0.6598849,-0.06000376,-0.02839063
29276,-0.09716422,-0.1207556,0.165894,-0.1856878,-0.1164308,-0.1904116,7.628199,0.9098291,-0.9433491,-37.75,-11.5,24.125,21.37163,-82.33146,165.0334,-0.7493498,-0.6594948,-0.05415871,-0.02466957
29287,-0.09955261,-0.1224137,0.1630633,-0.1837505,-0.1275661,-0.2177755,7.58989,1.134892,-0.9385605,-35.875,-14.375,26.125,19.6219,-82.24303,166.0292,-0.7504182,-0.6588411,-0.04859831,-0.02095591
29299,-0.1018963,-0.1242592,0.159911,-0.1806883,-0.1422836,-0.2430276,7.747913,1.407841,-0.9050406,-35.75,-17.625,30.625,17.78884,-82.1245,167.1032,-0.751623,-0.6579665,-0.04295498,-0.0172582
29310,-0.1041943,-0.1263249,0.156473,-0.1770436,-0.1591431,-0.2648681,8.011285,1.561075,-0.9241948,-24.375,-21.75,33.25,15.84244,-81.9568,168.4323,-0.7530546,-0.6566953,-0.03805652,-0.01455767
29322,-0.1064374,-0.1285961,0.1527704,-0.1722365,-0.1743965,-0.2843138,8.217194,1.417418,-0.8858863,4.75,-26.125,30.625,13.95847,-81.74031,170.0787,-0.7546554,-0.6550108,-0.03537737,-0.01430647
29333,-0.1086089,-0.1309972,0.148791,-0.1656168,-0.1831259,-0.3034894,8.284233,0.8858863,-0.7661719,29.75,-30.625,26,11.93753,-81.48908,172.1969,-0.7563916,-0.6530052,-0.03443089,-0.01644231
29345,-0.1106984,-0.1334044,0.1445704,-0.1594065,-0.1836435,-0.3219879,8.346485,0.2059087,-0.8092691,26.875,-33.625,25.75,9.291399,-81.20065,174.9108,-0.7583674,-0.6507308,-0.03263765,-0.01905852
29357,-0.1128194,-0.1359008,0.1399013,-0.1548568,-0.1822731,-0.3409114,8.351274,-0.004788574,-1.000812,-0.75,-35.25,29,6.232767,-80.83597,177.6611,-0.7607703,-0.6481097,-0.02816779,-0.0197248
29368,-0.1148162,-0.1383273,0.1351636,-0.1515703,-0.1841905,-0.3596265,8.289022,0.1867544,-1.149258,-19.125,-35.875,29.5,3.730971,-80.43989,179.6204,-0.7632323,-0.6454599,-0.02271858,-0.0184921
29380,-0.1167236,-0.1407515,0.1302632,-0.1474319,-0.1873631,-0.3787573,8.236348,0.2537944,-1.130104,-18.5,-36.375,25.625,1.852981,-80.04598,-179.0241,-0.7655703,-0.6428819,-0.01785811,-0.01691905
29392,-0.1187976,-0.1435659,0.1243821,-0.1412326,-0.1916554,-0.4004874,8.245925,0.2777373,-1.091795,-8.75,-36.875,18.625,0.5030057,-79.60679,-178.1165,-0.7680883,-0.6400071,-0.01389353,-0.01543667
29404,-0.1206128,-0.1461698,0.1188138,-0.1365201,-0.1958426,-0.4187901,8.327331,0.2825259,-1.235452,1.625,-36.875,12.125,-0.148751,-79.19783,-177.7203,-0.7703888,-0.6373025,-0.01167982,-0.01450063
29416,-0.1223534,-0.1487713,0.1131413,-0.1334736,-0.1994862,-0.4349788,8.427891,0.2346401,-1.436572,8.625,-35.625,7,-0.4395103,-78.79337,-177.5826,-0.7726442,-0.6346022,-0.01042468,-0.01386691
29427,-0.1240501,-0.1513691,0.1073097,-0.1307919,-0.2002612,-0.4495525,8.528451,0.009577149,-1.532344,10.875,-32.625,2,-0.584759,-78.42815,-177.551,-0.7746711,-0.6321515,-0.009557553,-0.01333159
29439,-0.1256964,-0.1539356,0.1013235,-0.1269657,-0.1979208,-0.4616439,8.724782,-0.2298516,-1.522767,7,-29.125,-2.125,-0.6673028,-78.12589,-177.6231,-0.7763501,-0.6301215,-0.008549546,-0.01243511
29450,-0.1272811,-0.1564619,0.09518701,-0.1215419,-0.1937703,-0.4706651,8.978577,-0.3591431,-1.489247,-3.625,-25.875,-5.75,-0.6327536,-77.88596,-177.9448,-0.7776975,-0.6285126,-0.006978461,-0.01047857
29462,-0.128784,-0.1589292,0.08896606,-0.1155983,-0.1897759,-0.4784973,9.06956,-0.3304116,-1.503612,-17.625,-23.875,-8.125,-0.449873,-77.68,-178.5931,-0.7788661,-0.627133,-0.004641703,-0.007100456
29473,-0.1302163,-0.1613556,0.08265422,-0.1108555,-0.187788,-0.4884954,8.878016,-0.1484458,-1.589807,-32.625,-22,-9.125,-0.1099067,-77.486,-179.5912,-0.779958,-0.6258264,-0.001484393,-0.002182049
29485,-0.1316398,-0.1638724,0.0759953,-0.1073202,-0.1897436,-0.5020297,8.609857,0.1963315,-1.661635,-45,-19.875,-9.25,0.4612776,-77.29802,178.9917,-0.7809722,-0.6245462,0.002351531,0.004357689
29496,-0.1329696,-0.1663682,0.06942022,-0.1044134,-0.1959646,-0.5162593,8.49972,0.5889946,-1.690367,-46.25,-18.375,-9.375,1.246823,-77.12807,177.3712,-0.7818156,-0.623383,0.005793728,0.01115419
29507,-0.1343041,-0.1690721,0.06246798,-0.1019859,-0.2066411,-0.5313136,8.447045,0.9768692,-1.728675,-32.25,-17.5,-11,2.366185,-76.95054,175.5723,-0.7826219,-0.6222045,0.007876849,0.0173988
29519,-0.1356484,-0.1719753,0.05519634,-0.1011433,-0.2184293,-0.5471098,8.370428,1.110949,-1.853178,-10.75,-16.5,-13.5,3.661971,-76.75146,173.8738,-0.7834969,-0.6209506,0.0081444,0.02206269
29530,-0.136927,-0.1748505,0.0481195,-0.1014799,-0.2282091,-0.5616991,8.370428,1.053486,-1.972893,11.375,-14.625,-15.625,4.88588,-76.56274,172.552,-0.7843238,-0.6198269,0.006812854,0.02458685
29542,-0.1382486,-0.1779475,0.04058351,-0.1010024,-0.2366865,-0.5759258,8.447045,0.967292,-1.953738,26,-13,-16.5,6.087779,-76.39341,171.4439,-0.7850465,-0.6188836,0.004447251,0.02579783
29554,-0.1395691,-0.181182,0.03274727,-0.09925704,-0.2431243,-0.5890135,8.566759,0.8380005,-1.910641,36.75,-11.5,-16.625,7.184719,-76.25598,170.5891,-0.7856153,-0.6181736,0.001427076,0.02584761
29565,-0.1408163,-0.184354,0.02501209,-0.09668823,-0.2459103,-0.5996729,8.739148,0.5985718,-1.905853,41.5,-10.25,-16.375,8.045394,-76.15346,170.0297,-0.7860353,-0.6176684,-0.001554336,0.02513601
29576,-0.1419999,-0.1874624,0.01727861,-0.09315579,-0.2446357,-0.6086478,8.882805,0.3016802,-1.877121,38.5,-9.25,-15.75,8.659208,-76.08514,169.6798,-0.7863074,-0.6173449,-0.003948099,0.0242953
29588,-0.1431886,-0.1906679,0.009037042,-0.08903633,-0.2400948,-0.6172995,8.954634,0.07661719,-1.872333,27.25,-7.75,-14.25,9.075954,-76.04752,169.3929,-0.7864288,-0.6171895,-0.005301769,0.02405723
29599,-0.1442775,-0.1936781,0.001034584,-0.08514954,-0.2353926,-0.6257787,8.940269,0.06225147,-1.872333,13.875,-5.5,-12.625,9.394857,-76.04407,169.026,-0.7863536,-0.6172515,-0.005517638,0.02486118
29611,-0.1454412,-0.1970164,-0.008049655,-0.08128358,-0.2331859,-0.6345515,8.973788,0.3016802,-1.901064,2.625,-2.5,-10.75,9.833488,-76.07507,168.3655,-0.7860208,-0.6175907,-0.004933425,0.02699526
29623,-0.1464194,-0.1999548,-0.01610849,-0.07780708,-0.2337293,-0.6410143,9.064771,0.5267432,-1.896275,0.25,0,-9.25,10.29468,-76.13168,167.6743,-0.7855346,-0.6181142,-0.00430204,0.02918283
29634,-0.1473862,-0.2030491,-0.02459616,-0.07374436,-0.2360045,-0.6473701,9.098291,0.6799775,-1.843601,3.25,2.5,-7.5,10.8053,-76.22886,166.9586,-0.7848172,-0.6189292,-0.003816311,0.03121242
29646,-0.1482939,-0.2061488,-0.03307694,-0.06995565,-0.2389004,-0.6536252,9.098291,0.7470176,-1.834024,7,4.625,-5,11.23865,-76.35448,166.367,-0.7839785,-0.6199137,-0.003420867,0.03275861
29657,-0.1491691,-0.2093808,-0.04185124,-0.06580511,-0.2430079,-0.6597216,9.127023,0.8427891,-1.786138,11.125,6.25,-1.375,11.56946,-76.51626,165.9224,-0.7829906,-0.6211075,-0.0030558,0.03379301
29669,-0.1499393,-0.2125295,-0.05029348,-0.06070059,-0.2481458,-0.6653199,9.165331,0.9385605,-1.666424,18.5,7,1.625,11.81192,-76.6999,165.6591,-0.7819415,-0.6224152,-0.003027425,0.03402631
29680,-0.1506569,-0.2158262,-0.05899857,-0.05523337,-0.2537621,-0.6700858,9.246737,0.9625034,-1.632904,29.625,7.25,4.25,11.93639,-76.90125,165.6539,-0.7808771,-0.6237966,-0.003564809,0.03310825
29691,-0.1512841,-0.2191632,-0.06772234,-0.04842826,-0.25767,-0.6735979,9.376028,0.8140576,-1.527555,44.5,7.125,6.125,11.86993,-77.12627,166.0315,-0.7797972,-0.6252655,-0.004856213,0.03059085
29703,-0.1518169,-0.2226017,-0.07674379,-0.03988973,-0.257412,-0.6753597,9.557994,0.4644917,-1.426995,58.875,6.25,5.75,11.5841,-77.37285,166.8362,-0.7787057,-0.6267969,-0.006974919,0.02635202
29714,-0.1522195,-0.2257835,-0.08527841,-0.03187088,-0.2518587,-0.6755817,9.692075,0.009577149,-1.436572,65,5.125,4.25,11.08517,-77.5969,167.9118,-0.7777714,-0.6281124,-0.009189069,0.02149526
29726,-0.1525427,-0.2289512,-0.09412496,-0.02472727,-0.2423665,-0.6768587,9.610668,-0.3256231,-1.479669,57.75,4.25,3.625,10.35431,-77.80969,169.1502,-0.7769018,-0.629304,-0.01077359,0.01685406
29737,-0.1527983,-0.2319921,-0.1030057,-0.01957514,-0.2329466,-0.6803101,9.419126,-0.3687202,-1.565864,35.25,4.625,5.25,9.479034,-78.00599,170.237,-0.776072,-0.6303978,-0.01060414,0.01408979
29749,-0.1530072,-0.2349111,-0.1118277,-0.01622337,-0.2266294,-0.6849375,9.294622,-0.1723887,-1.652058,13.125,5.5,7.5,8.612803,-78.18657,171.0206,-0.775261,-0.631437,-0.008877689,0.01337734
29760,-0.1531834,-0.2378401,-0.1208394,-0.01349689,-0.2244144,-0.6904434,9.218005,0.1245029,-1.661635,-0.5,6.125,9.375,7.841278,-78.36401,171.5231,-0.7744065,-0.6325007,-0.006270805,0.01407471
29772,-0.1533162,-0.2407926,-0.129904,-0.01019443,-0.22668,-0.6959403,9.222795,0.4549146,-1.585018,1.5,6.375,8.875,7.365294,-78.54228,171.7517,-0.7734841,-0.6336243,-0.004165955,0.0150094
29783,-0.1533961,-0.2437854,-0.1389748,-0.006171362,-0.2310105,-0.700176,9.328143,0.6081489,-1.517978,16,5.75,6.5,7.160218,-78.71198,171.899,-0.7725812,-0.634729,-0.003457069,0.01501133
29794,-0.1534168,-0.2468127,-0.1480628,-0.001600897,-0.2342018,-0.7030797,9.443069,0.5123774,-1.474881,34.75,4.125,3.125,7.088297,-78.86153,172.1612,-0.7717963,-0.6357115,-0.004304461,0.01352342
29806,-0.1533788,-0.2498904,-0.157307,0.002897858,-0.2347264,-0.7050218,9.524474,0.292103,-1.484458,41,2.25,1.75,6.916069,-78.98746,172.6131,-0.7711604,-0.6365159,-0.005554889,0.01133887
29818,-0.1532893,-0.2529387,-0.1665362,0.00684615,-0.2330352,-0.7055382,9.629823,0.1053486,-1.532344,32.5,0.625,3.125,6.488078,-79.08952,173.2097,-0.770674,-0.6371293,-0.005915408,0.009628869
29829,-0.1531569,-0.255962,-0.1757564,0.01011719,-0.2310856,-0.7047474,9.720806,0.06704004,-1.589807,18.125,-0.125,5.375,5.870611,-79.17599,173.8052,-0.7702749,-0.6376289,-0.005017413,0.009000824
29841,-0.1529685,-0.2591465,-0.1854428,0.01368312,-0.2312413,-0.7033898,9.759114,0.2106973,-1.575441,7.375,-1.125,7,5.222382,-79.25298,174.2776,-0.7699102,-0.6380751,-0.003243204,0.009386955
29853,-0.1529685,-0.2591465,-0.1854428,0,0,0,9.749537,0.4166059,-1.551498,10.125,-2.5,6.25,4.820574,-79.30502,174.5456,-0.7696534,-0.6383836,-0.002006839,0.009795278
29865,-0.1529685,-0.2591465,-0.1854428,0,0,0,9.668132,0.5458975,-1.565864,20,-4,4.625,4.62134,-79.32919,174.7402,-0.7695389,-0.6385256,-0.001740284,0.00958491
29877,-0.1529685,-0.2591465,-0.1854428,0,0,0,9.4718,0.5363203,-1.61375,25.625,-5.25,3.875,4.466922,-79.32113,174.9706,-0.7696047,-0.6384555,-0.001991028,0.008902374
29889,-0.1529685,-0.2591465,-0.1854428,0,0,0,9.352086,0.4166059,-1.690367,21.125,-5.75,5.375,4.128756,-79.29594,175.3196,-0.7697763,-0.6382557,-0.001676191,0.008454324
29900,-0.1529685,-0.2591465,-0.1854428,0,0,0,9.323354,0.3208345,-1.771773,7.25,-5.25,8.625,3.488271,-79.26826,175.7882,-0.7699705,-0.6380175,5.065456E-06,0.008885122
29912,-0.1529685,-0.2591465,-0.1854428,0,0,0,9.352086,0.3830859,-1.74783,-6,-4.5,11.75,2.697112,-79.25655,176.2289,-0.7700622,-0.6378787,0.002863555,0.01033272
29923,-0.1529598,-0.2592178,-0.1854841,0.0006705506,-0.005512722,-0.003196181,9.37124,0.5650518,-1.699944,-9.25,-4.25,12.875,1.998645,-79.25466,176.5335,-0.7700763,-0.6378088,0.005861186,0.01217413
29936,-0.152952,-0.2593923,-0.1855737,0.0005570331,-0.0124104,-0.00637118,9.380817,0.6225147,-1.762195,2.125,-4.5,10.875,1.44502,-79.23616,176.8208,-0.7701775,-0.6376406,0.007977895,0.0133292
29947,-0.1529492,-0.2596397,-0.1857045,0.0002130748,-0.01905734,-0.0100763,9.318565,0.6368804,-1.771773,14.625,-4.5,8.375,1.129972,-79.21402,177.0549,-0.7703049,-0.6374721,0.008787845,0.01351364
29958,-0.1529466,-0.2599759,-0.1859143,0.0001989531,-0.02570247,-0.01603873,9.155754,0.6225147,-1.719098,24.5,-4.5,7,0.9139169,-79.19463,177.3201,-0.7704269,-0.637337,0.008760948,0.01293631
29970,-0.1529488,-0.2603769,-0.1862076,-0.0001694185,-0.03134194,-0.02292242,9.06956,0.5458975,-1.738253,29.75,-4.5,6.125,0.7097588,-79.17046,177.6415,-0.770581,-0.6371762,0.008341816,0.0119147
29981,-0.152955,-0.2608526,-0.1866028,-0.0004718071,-0.03620178,-0.03006923,9.064771,0.4644917,-1.738253,35.25,-4,4.375,0.5641919,-79.15202,177.983,-0.7707066,-0.6370617,0.007418854,0.01042971
29993,-0.1529517,-0.2613726,-0.187086,0.0002467531,-0.03991122,-0.03709679,9.083925,0.3687202,-1.666424,42.25,-3.5,1.5,0.5505519,-79.15188,178.2869,-0.7707317,-0.6370771,0.005820927,0.008461443
30004,-0.1529343,-0.261923,-0.1876482,0.001345705,-0.0423907,-0.04329127,9.150966,0.2681602,-1.652058,49.25,-3.375,-2,0.701081,-79.15674,178.5224,-0.7707258,-0.6371288,0.003500052,0.00604039
30016,-0.1529118,-0.2624786,-0.1882706,0.001740895,-0.04312114,-0.0483038,9.227583,0.1292915,-1.723887,50,-2.875,-4.375,0.9027074,-79.15879,178.7184,-0.7707266,-0.6371551,0.001054436,0.003600856
30027,-0.1528772,-0.2630291,-0.1889746,0.002656006,-0.04216725,-0.05393627,9.194062,-0.004788574,-1.676001,43.875,-2.625,-5.625,1.088351,-79.17087,178.8591,-0.7706628,-0.6372405,-0.0009751481,0.001620758
30038,-0.1528334,-0.2635514,-0.1897607,0.003363983,-0.04018009,-0.06046613,9.122234,-0.08619434,-1.676001,31.875,-2.5,-5.625,1.208469,-79.1824,178.9092,-0.7705975,-0.6373187,-0.002060015,0.0006145979
30051,-0.1527948,-0.2641005,-0.1907111,0.002723832,-0.03869327,-0.06697734,9.146177,-0.03352002,-1.78135,18.75,-1.875,-5.25,1.360378,-79.18615,178.7554,-0.7705728,-0.6373476,-0.002225958,0.0008030999
30062,-0.1527652,-0.2646,-0.1916349,0.002317387,-0.03916492,-0.07242398,9.179697,0.1197144,-1.771773,10.375,-1.125,-5.25,1.620414,-79.20075,178.3847,-0.7704826,-0.6374555,-0.001910268,0.001846963
30074,-0.1527202,-0.2651494,-0.1926749,0.003432469,-0.04187863,-0.07927299,9.107868,0.3064688,-1.632904,12.25,-1.125,-6.25,2.113232,-79.23347,177.8012,-0.7702799,-0.6376957,-0.001969997,0.003021454
30085,-0.1526536,-0.2657322,-0.1938123,0.005123752,-0.04489246,-0.08761693,8.997731,0.3495659,-1.561075,22.125,-2,-8.5,2.785017,-79.25941,177.17,-0.7701031,-0.6379028,-0.002965423,0.003517566
30097,-0.1525642,-0.266394,-0.1951769,0.00631758,-0.04674809,-0.09639457,9.012096,0.2681602,-1.608961,30.625,-2.75,-10.875,3.600823,-79.26593,176.5237,-0.7700198,-0.637993,-0.00484704,0.003317288
30109,-0.1524665,-0.2669981,-0.1964817,0.007634446,-0.04720457,-0.1019567,9.198852,0.191543,-1.623327,32.875,-2.875,-11.875,4.324004,-79.27162,175.9851,-0.7699372,-0.6380778,-0.006705352,0.002907099
30120,-0.152348,-0.2676196,-0.1978645,0.009079702,-0.04760853,-0.1059325,9.328143,0.2059087,-1.637692,30.125,-2.875,-11.5,5.032469,-79.27753,175.4286,-0.7698444,-0.6381712,-0.008363578,0.002697753
30132,-0.1522157,-0.2682565,-0.1992904,0.01019291,-0.04908149,-0.1098651,9.323354,0.3064688,-1.661635,26.75,-2.875,-10.375,5.72624,-79.27806,174.8396,-0.7697726,-0.6382378,-0.009743245,0.002790812
30143,-0.1520703,-0.2689446,-0.2007796,0.01122273,-0.0530984,-0.1149165,9.232371,0.5219546,-1.652058,27.5,-2.625,-9.25,6.508551,-79.27749,174.1673,-0.7696871,-0.6383153,-0.01125354,0.002949933
30155,-0.1519054,-0.2697315,-0.2023768,0.01262469,-0.06026933,-0.1223348,9.055194,0.7805376,-1.594595,38.375,-2.75,-9,7.491407,-79.27334,173.433,-0.7695854,-0.6383909,-0.01376758,0.002408932
30166,-0.1517265,-0.2706194,-0.204092,0.01378343,-0.06840308,-0.1321348,8.863651,0.8715205,-1.585018,58.375,-3,-9.625,8.579225,-79.25713,172.8515,-0.769518,-0.6383759,-0.01784602,0.0002671748
30178,-0.1515437,-0.271591,-0.2059641,0.01403973,-0.07459732,-0.1437303,8.719994,0.7230747,-1.632904,74.375,-2.25,-9.75,9.542951,-79.2402,172.6069,-0.7694432,-0.6382928,-0.02296967,-0.003443959
30189,-0.1513628,-0.2726109,-0.2080101,0.0137283,-0.07742593,-0.1553262,8.729571,0.4549146,-1.671212,81.5,-0.5,-8.125,10.17094,-79.24854,172.8027,-0.7692467,-0.6382728,-0.02826907,-0.008264423
30201,-0.1511835,-0.2736272,-0.2101233,0.0140501,-0.07963128,-0.1655882,8.815765,0.4070288,-1.632904,83,1.25,-6.375,10.64255,-79.29158,173.1472,-0.768851,-0.6384224,-0.03331358,-0.01324409
30212,-0.1509614,-0.274729,-0.2124276,0.01702285,-0.08444841,-0.1766162,8.806189,0.6129375,-1.436572,101.25,1.5,-9,11.52326,-79.36194,173.3382,-0.7681547,-0.6387022,-0.04021941,-0.01950185
30224,-0.1506928,-0.2759117,-0.2148691,0.02018582,-0.08888903,-0.1834867,9.131811,0.584206,-1.489247,137.5,0,-16.25,12.89303,-79.40259,173.5532,-0.767344,-0.6385989,-0.05055533,-0.02861813
30235,-0.1504203,-0.2770271,-0.2171874,0.02166338,-0.08864885,-0.1842568,9.57236,0.2154858,-1.652058,154,-1.125,-18.875,14.04506,-79.41692,174.1156,-0.7665367,-0.6380807,-0.06138421,-0.03881546
30246,-0.1501291,-0.2781348,-0.2195564,0.02224833,-0.08462805,-0.1809877,9.878829,-0.1005601,-1.733464,147.375,-2,-16.625,14.83307,-79.42612,175.0258,-0.7656786,-0.6373099,-0.07170868,-0.04929639
30258,-0.1498548,-0.2791741,-0.2218996,0.0206144,-0.07813103,-0.1761538,9.969811,-0.3447773,-1.877121,125.5,-1.875,-11.625,15.09398,-79.42858,176.1969,-0.7649412,-0.6364287,-0.07995722,-0.05857022
30269,-0.1496321,-0.2800844,-0.2241058,0.01741188,-0.07114834,-0.1724253,9.878829,-0.4692803,-1.968104,89.5,-0.875,-4.125,14.7525,-79.43573,177.4477,-0.7644727,-0.6357617,-0.0846151,-0.06502895
30281,-0.1494236,-0.2810068,-0.2264904,0.01509869,-0.06679844,-0.1726987,9.577148,-0.2681602,-1.872333,50.25,0.625,4.375,13.94214,-79.47125,178.6832,-0.764159,-0.6355506,-0.08603477,-0.0688074
30293,-0.1492206,-0.2818965,-0.228868,0.01514695,-0.06638721,-0.1774077,9.270679,0.01436572,-1.699944,22.875,1.125,10.875,12.94533,-79.52718,179.7129,-0.7639686,-0.6357593,-0.08506131,-0.07019023
30304,-0.1490309,-0.2827557,-0.23119,0.01492452,-0.06760288,-0.182708,9.198852,0.1053486,-1.728675,13.5,1,13.375,11.91872,-79.56795,-179.353,-0.7639225,-0.6359759,-0.08337612,-0.07074998
30317,-0.1488172,-0.2837923,-0.2339194,0.01460201,-0.0708252,-0.1864804,9.352086,0.1963315,-1.78135,14.375,1,13.375,10.84081,-79.6063,-178.3708,-0.7638759,-0.6361933,-0.0816241,-0.07133803
30329,-0.1485931,-0.2848152,-0.2365202,0.01648848,-0.0752594,-0.1913512,9.280257,0.3112573,-1.623327,20.375,0.125,12.625,10.01924,-79.65078,-177.5577,-0.7637007,-0.6364292,-0.08064586,-0.07221828
30341,-0.148343,-0.2858282,-0.2390558,0.01955613,-0.07923127,-0.1983088,9.117445,0.2968916,-1.484458,24.75,-2.125,12.25,9.284067,-79.67815,-176.774,-0.7635654,-0.6365299,-0.08009081,-0.07336856
30352,-0.1480507,-0.2868918,-0.2417081,0.02257888,-0.08215559,-0.2048728,9.155754,0.1867544,-1.479669,24.375,-5,12.625,8.44537,-79.66652,-175.89,-0.7636436,-0.6363781,-0.07941451,-0.07459735
30364,-0.1477253,-0.2879959,-0.2444511,0.0246308,-0.08356687,-0.2076186,9.43828,0.0191543,-1.589807,17.625,-7.375,13.625,7.411994,-79.60799,-174.8984,-0.7640318,-0.6359812,-0.07803814,-0.07545603
30375,-0.1473804,-0.2890913,-0.2471119,0.02684554,-0.08526307,-0.2071109,9.682497,0.01436572,-1.632904,10.375,-8.625,14.5,6.386321,-79.53214,-174.0077,-0.7645576,-0.6355506,-0.07613972,-0.0756961
30386,-0.146983,-0.290244,-0.2497948,0.03059653,-0.08874881,-0.2065688,9.701652,0.1484458,-1.561075,9,-10.125,14,5.534896,-79.44973,-173.312,-0.7651175,-0.6351029,-0.07430777,-0.07561619
30398,-0.1465313,-0.2914786,-0.2525519,0.03413821,-0.09330723,-0.2083682,9.519686,0.2011201,-1.58023,13.5,-11.75,13,4.834784,-79.33997,-172.7106,-0.7657822,-0.6344426,-0.07294498,-0.07575876
30409,-0.1460739,-0.2927126,-0.2552321,0.03599126,-0.09709956,-0.2108899,9.433492,0.1101372,-1.695155,13.875,-12.5,13.125,4.131066,-79.20548,-172.0963,-0.7665681,-0.6336178,-0.07160801,-0.07598662
30421,-0.1455739,-0.2940177,-0.2580031,0.03841537,-0.1002726,-0.2129074,9.481377,0.03830859,-1.671212,6,-12.5,15.25,3.236266,-79.06905,-171.3975,-0.7674141,-0.6328638,-0.06943909,-0.07574461
30432,-0.1450561,-0.2953725,-0.260796,0.03971756,-0.1039131,-0.2142148,9.514897,0.02873145,-1.790927,-2.875,-11.875,17,2.258536,-78.92124,-170.7346,-0.7683782,-0.6321192,-0.06648824,-0.07483043
30444,-0.1445184,-0.2968077,-0.2636292,0.04109835,-0.1097127,-0.2165724,9.433492,0.1723887,-1.819658,-5.375,-10.875,17.625,1.37949,-78.78344,-170.2078,-0.7692978,-0.6314629,-0.06342938,-0.07356668
30455,-0.1439589,-0.2983121,-0.2664643,0.04367257,-0.1174172,-0.2212844,9.265891,0.3352002,-1.733464,-1.125,-9.625,17.375,0.6687273,-78.67942,-169.7905,-0.7699913,-0.6309903,-0.06089871,-0.07249867
30467,-0.1433512,-0.2999648,-0.2694326,0.04637992,-0.126137,-0.2265497,9.232371,0.3830859,-1.743041,9.875,-8.5,16.375,0.05476262,-78.59053,-169.3326,-0.7705136,-0.6305404,-0.05923922,-0.07223975
30478,-0.142726,-0.3017298,-0.2724534,0.04770447,-0.1346734,-0.2304944,9.308989,0.3256231,-1.872333,21.75,-7.25,15,-0.4964085,-78.50309,-168.7802,-0.7709274,-0.6300178,-0.05851325,-0.07297077
30489,-0.1421065,-0.3035711,-0.2754927,0.0477629,-0.1419528,-0.2343143,9.294622,0.1963315,-1.958527,32.5,-5.25,12.625,-0.9788706,-78.43196,-168.1532,-0.7711607,-0.6295298,-0.05866191,-0.07458053
30502,-0.141445,-0.3056123,-0.2788191,0.04789079,-0.147774,-0.240812,9.122234,0.04309717,-1.896275,39.75,-3.125,9.625,-1.423695,-78.39343,-167.4486,-0.7711354,-0.6292017,-0.05950798,-0.07690389
30513,-0.1408065,-0.3076238,-0.282117,0.04825826,-0.152041,-0.2492808,8.959422,-0.06225147,-1.824447,42.875,-1.625,6.375,-1.731121,-78.38779,-166.8458,-0.7709169,-0.6290569,-0.06074416,-0.07927591
30525,-0.1401812,-0.3096186,-0.285445,0.04851508,-0.1547659,-0.258201,8.906748,-0.1867544,-1.795715,42.125,-0.875,4.125,-1.985439,-78.39616,-166.3091,-0.7706308,-0.629004,-0.06198765,-0.08148431
30537,-0.139492,-0.3118111,-0.2892575,0.04823364,-0.1534519,-0.266834,8.983365,-0.5123774,-1.78135,36.875,-0.25,0.5,-2.293686,-78.41719,-165.7522,-0.7702831,-0.6290634,-0.06299125,-0.08351931
30548,-0.1388984,-0.3137076,-0.2927116,0.04683404,-0.1496237,-0.2725094,9.117445,-0.7518061,-1.84839,25.25,0.625,-3.375,-2.493953,-78.44316,-165.4711,-0.7700459,-0.6292291,-0.06321344,-0.08428731
30560,-0.1383167,-0.3156206,-0.2963302,0.04469782,-0.146986,-0.2780345,9.131811,-0.6608232,-1.920218,7.125,2,-5.125,-2.522002,-78.48534,-165.5961,-0.7699227,-0.6295999,-0.06237932,-0.0832579
30571,-0.1377649,-0.3175403,-0.3000547,0.04239305,-0.1474813,-0.2861256,8.940269,-0.3974517,-1.939373,-11.25,3.375,-5.25,-2.360587,-78.54465,-166.1542,-0.7699105,-0.6301809,-0.06045236,-0.08034674
30583,-0.1372309,-0.3195142,-0.303926,0.04096776,-0.1514415,-0.297013,8.748725,-0.08140577,-1.877121,-18.125,4.375,-6.125,-1.924069,-78.6324,-167.0812,-0.7698382,-0.63095,-0.05836195,-0.07645317
30594,-0.1366881,-0.3215746,-0.3079228,0.04188235,-0.1589883,-0.3084186,8.743937,0.2681602,-1.733464,-12.625,4.375,-8,-1.120628,-78.75589,-168.3032,-0.7695501,-0.6318706,-0.05712392,-0.07258838
30606,-0.136112,-0.3237737,-0.312044,0.04441627,-0.1695289,-0.3177024,8.930691,0.5554746,-1.671212,1.125,3.125,-9.625,0.0110632,-78.88515,-169.6763,-0.7691245,-0.6327212,-0.05723201,-0.06954078
30617,-0.1354921,-0.3261156,-0.316275,0.04749751,-0.1794538,-0.3242128,9.150966,0.5458975,-1.652058,18.125,1.375,-11.5,1.26117,-78.99729,-170.9434,-0.7686319,-0.6333655,-0.05868048,-0.06789657
30629,-0.1348423,-0.3285086,-0.3205161,0.05029109,-0.1852051,-0.3282382,9.332932,0.258583,-1.642481,32.5,-0.375,-13.375,2.390821,-79.08186,-171.8963,-0.7681367,-0.633763,-0.06102198,-0.06772661
30640,-0.1341576,-0.330947,-0.3248352,0.05241339,-0.1866654,-0.3306311,9.452645,-0.05746289,-1.652058,33.375,-1.75,-14,3.320149,-79.14052,-172.6293,-0.7677411,-0.6340044,-0.06321365,-0.06794287
30651,-0.1334551,-0.3333723,-0.3291471,0.05403978,-0.1865571,-0.3316843,9.548417,-0.1628115,-1.68079,21.5,-2.25,-12.125,4.027307,-79.18213,-173.2959,-0.7675102,-0.6342371,-0.06427178,-0.06738551
30663,-0.132719,-0.3358356,-0.3334974,0.05632256,-0.1884753,-0.3328467,9.548417,0.02394287,-1.656847,10.125,-2.875,-9.5,4.697291,-79.216,-174.0793,-0.7674006,-0.6345154,-0.06442732,-0.06584606
30674,-0.131953,-0.3383225,-0.3378019,0.05979527,-0.1941324,-0.3360272,9.40476,0.3639317,-1.585018,10.25,-3.875,-8.25,5.530172,-79.24426,-175.0277,-0.7673118,-0.6347674,-0.0647544,-0.06410914
30686,-0.1311156,-0.3409774,-0.3422998,0.06370524,-0.2019766,-0.3421782,9.189274,0.5554746,-1.54671,23.375,-4.75,-8.875,6.582169,-79.26175,-176.0275,-0.7671683,-0.634872,-0.06625894,-0.06324561
30697,-0.1302435,-0.3436914,-0.346824,0.06696531,-0.2084013,-0.347399,9.246737,0.4692803,-1.589807,42.75,-5.25,-11,7.678295,-79.26481,-176.8152,-0.7669408,-0.6347497,-0.06923185,-0.06404556
30709,-0.1293414,-0.3464537,-0.3513973,0.06884535,-0.2108129,-0.349031,9.50532,0.158023,-1.690367,54.25,-5,-12.625,8.610838,-79.25891,-177.2798,-0.7666591,-0.6344686,-0.0729002,-0.06609883
30720,-0.1284568,-0.3491315,-0.3558436,0.06930859,-0.2097884,-0.3483439,9.668132,-0.1149258,-1.776561,54.875,-4.125,-13.375,9.341406,-79.25365,-177.5418,-0.7663664,-0.6341751,-0.07633853,-0.06838861
30732,-0.127549,-0.3518282,-0.3603893,0.06951685,-0.2065214,-0.348114,9.634611,-0.2777373,-1.752618,46.5,-3.125,-13.125,9.929794,-79.26241,-177.758,-0.7660496,-0.6340245,-0.07907337,-0.07020266
30743,-0.1266463,-0.3544636,-0.3649376,0.06939469,-0.2025806,-0.3496315,9.500531,-0.3256231,-1.738253,31.75,-2.5,-11.5,10.35438,-79.27601,-178.0049,-0.7658304,-0.634026,-0.08054032,-0.0709083
30755,-0.1256708,-0.3572924,-0.36994,0.06878886,-0.1994805,-0.3527552,9.390394,-0.2394287,-1.766984,10.625,-1.75,-7.375,10.5706,-79.29101,-178.3338,-0.7657975,-0.6342244,-0.08015952,-0.069915
30767,-0.1247992,-0.3598371,-0.374484,0.06836471,-0.1995977,-0.3564222,9.318565,0,-1.790927,-7.375,-1.25,-3.625,10.69356,-79.30427,-178.7952,-0.7659153,-0.634559,-0.07842068,-0.06751873
30778,-0.1238949,-0.3625083,-0.3792259,0.06890877,-0.203553,-0.3613355,9.23716,0.3208345,-1.757407,-13.125,-1.25,-0.875,10.88598,-79.32047,-179.4195,-0.7660552,-0.6349777,-0.07624112,-0.06442111
30790,-0.1229824,-0.3652316,-0.3839814,0.07036346,-0.2099993,-0.366712,9.20364,0.5458975,-1.71431,-4.125,-1.5,-0.25,11.20779,-79.33826,179.9448,-0.7660949,-0.6353384,-0.07485995,-0.06196661
30801,-0.1220346,-0.3680609,-0.3888411,0.07254158,-0.2165374,-0.3719369,9.227583,0.5746289,-1.661635,16.25,-2.125,-1.875,11.6557,-79.35582,179.4488,-0.7659709,-0.6355397,-0.07509352,-0.06114649
30813,-0.1210708,-0.3709312,-0.393738,0.07410732,-0.2207123,-0.3765407,9.270679,0.3974517,-1.68079,33.125,-2.75,-3.875,12.07929,-79.36246,179.2021,-0.7657863,-0.6355199,-0.07655213,-0.06185149
30824,-0.1201089,-0.3737997,-0.3986655,0.07437506,-0.2217929,-0.3810019,9.270679,0.1436572,-1.733464,39.25,-2.625,-4,12.2904,-79.36275,179.25,-0.7656161,-0.635374,-0.07822857,-0.06334289
30836,-0.1191554,-0.3766583,-0.4036827,0.07344442,-0.2201835,-0.3864449,9.189274,-0.08619434,-1.766984,32.25,-1.75,-2.5,12.20466,-79.36744,179.5065,-0.7655056,-0.6352773,-0.07907494,-0.06458472
30848,-0.1181224,-0.379789,-0.4093472,0.07186597,-0.2178019,-0.3940815,9.074348,-0.1436572,-1.771773,20,-0.5,-0.75,11.92519,-79.38592,179.7975,-0.7654311,-0.6353583,-0.07881006,-0.0649923
30860,-0.1171672,-0.3827445,-0.4148395,0.07002523,-0.2166618,-0.4026285,8.973788,-0.07182861,-1.790927,10.75,0.625,-0.125,11.68485,-79.41162,179.9205,-0.7653835,-0.6355817,-0.07787199,-0.06449911
30872,-0.116277,-0.3855724,-0.4201846,0.06846149,-0.2174849,-0.4110706,8.949845,0.07661719,-1.795715,8,1.75,0,11.5791,-79.44849,179.8762,-0.7652751,-0.6359169,-0.07689891,-0.06364183
30883,-0.1153874,-0.3884502,-0.4256605,0.06804671,-0.2201176,-0.4188331,9.016886,0.2346401,-1.738253,9.75,2.375,-0.125,11.61921,-79.50409,179.706,-0.7650339,-0.6363793,-0.07618945,-0.06276575
30894,-0.1145128,-0.3913181,-0.4311247,0.0681291,-0.2234101,-0.4256622,9.083925,0.3016802,-1.71431,16.5,2.125,-0.875,11.76485,-79.55956,179.5192,-0.764731,-0.6367942,-0.07609131,-0.06236726
30906,-0.1136216,-0.3942814,-0.4367681,0.06827179,-0.2269965,-0.4323084,9.107868,0.3256231,-1.709521,25.375,1.875,-2.125,12.02046,-79.61252,179.3389,-0.764365,-0.6371279,-0.07676221,-0.06262343
30917,-0.1127331,-0.3972939,-0.4425047,0.06794487,-0.2303872,-0.4387131,9.122234,0.3064688,-1.738253,33.625,1.75,-3,12.31962,-79.65818,179.2245,-0.7639724,-0.6373447,-0.07809214,-0.06355829
30929,-0.1118393,-0.4004022,-0.4484375,0.06708846,-0.2333055,-0.4453096,9.112657,0.258583,-1.762195,37.625,1.5,-2.75,12.56077,-79.69611,179.2254,-0.7635955,-0.6374612,-0.07967976,-0.06493454
30940,-0.1110045,-0.4033546,-0.4540988,0.06671228,-0.235923,-0.4523911,9.050406,0.2537944,-1.709521,37.125,1.25,-1.875,12.72456,-79.73402,179.2818,-0.7632378,-0.63758,-0.08105944,-0.0662505
30952,-0.1101316,-0.4064836,-0.4601452,0.06662776,-0.2388421,-0.4615228,8.925902,0.2681602,-1.661635,33.5,0.625,-0.125,12.78509,-79.76872,179.4019,-0.7629318,-0.6376903,-0.08210786,-0.06741397
30963,-0.109251,-0.4096946,-0.4664046,0.06649567,-0.2424645,-0.4726611,8.782246,0.3112573,-1.64727,29.875,-0.125,2.125,12.72512,-79.79113,179.593,-0.7627371,-0.6377374,-0.08275764,-0.06836967
30975,-0.108335,-0.4131315,-0.4731752,0.0657878,-0.2468554,-0.4862844,8.638588,0.3352002,-1.671212,28.75,-0.875,3.875,12.55763,-79.79459,179.88,-0.7626666,-0.6376534,-0.08323772,-0.06935036
30987,-0.1075174,-0.4163335,-0.4795488,0.06413212,-0.2511569,-0.4999331,8.533239,0.3304116,-1.738253,30.75,-1,4.5,12.36534,-79.7816,-179.7937,-0.7626801,-0.637446,-0.08378173,-0.07044341
30999,-0.1066878,-0.4197355,-0.4864051,0.06227414,-0.2553828,-0.5147011,8.494931,0.2968916,-1.738253,36.375,-0.25,4.125,12.17013,-79.77675,-179.3826,-0.7625951,-0.6372328,-0.08477139,-0.07208978
31010,-0.1059065,-0.4230427,-0.4931681,0.06111496,-0.2586991,-0.5290184,8.494931,0.2394287,-1.676001,43,0.375,2.625,12.04639,-79.79036,-178.9647,-0.7623446,-0.6370909,-0.08626433,-0.07419153
31022,-0.1050372,-0.4267435,-0.5008672,0.06154342,-0.2619867,-0.5450336,8.504508,0.2298516,-1.54671,49,0.75,0.875,12.04702,-79.83479,-178.5534,-0.7618251,-0.6370729,-0.08853249,-0.07695913
31034,-0.1042154,-0.4302033,-0.5081955,0.06278674,-0.2643236,-0.5598762,8.518873,0.1819658,-1.465304,50.125,0.875,0.5,12.03561,-79.89071,-178.1445,-0.7612427,-0.6371334,-0.09070255,-0.07964782
31045,-0.1034026,-0.4335997,-0.5155439,0.06354345,-0.2655524,-0.5745445,8.504508,0.08140577,-1.470092,46.875,1.125,0.875,11.909,-79.94508,-177.6701,-0.7607053,-0.637206,-0.09247427,-0.08212639
31057,-0.1025809,-0.4370539,-0.5231939,0.06347691,-0.266839,-0.5909632,8.375216,0.05746289,-1.503612,38.25,1.75,2.25,11.66562,-79.9961,-177.1879,-0.760268,-0.6373307,-0.09351919,-0.08400195
31068,-0.1017559,-0.4406113,-0.5312497,0.06243065,-0.2691951,-0.6095969,8.221982,0.1053486,-1.561075,27.125,3.25,4.5,11.3033,-80.04996,-176.7325,-0.7599261,-0.6375854,-0.0936287,-0.08503543
31080,-0.1009615,-0.4441181,-0.5393193,0.0618309,-0.2729418,-0.6280782,8.198039,0.2154858,-1.541921,21.75,5.125,5.625,10.97655,-80.12745,-176.3875,-0.7595015,-0.6380634,-0.09335592,-0.08554117
31091,-0.1001385,-0.447725,-0.5476966,0.06336954,-0.2777324,-0.6450531,8.356062,0.3256231,-1.407841,29,6.875,4.125,10.8525,-80.2569,-176.1508,-0.7586989,-0.6388249,-0.09381149,-0.08647624
31102,-0.09925093,-0.4514641,-0.5564404,0.06712057,-0.2827496,-0.6612033,8.470988,0.3782974,-1.245029,52.25,7.625,-1.75,11.22543,-80.43265,-176.0956,-0.7573591,-0.6396623,-0.09653066,-0.089001
31114,-0.09833882,-0.4551166,-0.5650747,0.07171195,-0.2871695,-0.6788569,8.322542,0.3782974,-1.115738,80,7,-8.875,12.14594,-80.61366,-176.2437,-0.7556611,-0.6402609,-0.1017167,-0.09325268
31125,-0.09736799,-0.4588789,-0.5742122,0.07460441,-0.2891197,-0.7021776,7.910725,0.1628115,-1.110949,100.5,5.75,-14.875,13.37243,-80.77109,-176.4037,-0.7537819,-0.640421,-0.1088352,-0.09914054
31137,-0.09640783,-0.4626106,-0.5837476,0.0736436,-0.2862154,-0.7313537,7.441444,-0.2777373,-1.192355,96.875,5.5,-16.625,14.24263,-80.8885,-176.2441,-0.7521257,-0.6402664,-0.1153902,-0.1051248
31148,-0.09550531,-0.4662581,-0.5936846,0.06915843,-0.2795019,-0.7614611,7.345673,-0.6464576,-1.326435,70,6.625,-15.25,14.55416,-80.98269,-175.8716,-0.7509262,-0.6402153,-0.1194692,-0.1093686
31160,-0.09468843,-0.469746,-0.603798,0.06360018,-0.2715597,-0.7873986,7.62341,-0.7805376,-1.403052,41.625,8.75,-14.625,14.67903,-81.09351,-175.6873,-0.7499914,-0.6406329,-0.1212641,-0.1113441
31171,-0.09390281,-0.4732205,-0.614411,0.05997064,-0.2652287,-0.8101553,7.92509,-0.5937832,-1.321646,26,10.75,-17.25,15.27067,-81.2599,-176.169,-0.7488902,-0.6416662,-0.1223538,-0.111614
31183,-0.09311292,-0.4766586,-0.6253115,0.06027,-0.2623338,-0.8317193,8.054382,-0.2154858,-1.110949,28.125,11.5,-23.625,16.88545,-81.48069,-177.645,-0.7473366,-0.6431376,-0.124485,-0.1112011
31194,-0.09229577,-0.4800876,-0.636511,0.06231108,-0.2614714,-0.8540138,8.016073,0.02394287,-1.000812,40.75,10.25,-30.75,19.48825,-81.69395,-179.9394,-0.7454876,-0.6445374,-0.1283704,-0.1110896
31206,-0.09143033,-0.4836405,-0.6485283,0.06324887,-0.2596568,-0.8782641,7.939456,-0.01436572,-1.024755,49.875,8.375,-35,22.61553,-81.86015,177.3851,-0.7435818,-0.645633,-0.1334428,-0.1115213
31218,-0.09062007,-0.4870364,-0.6604455,0.06131325,-0.2569793,-0.9017896,7.910725,-0.1053486,-1.182778,40,7.25,-34.375,25.45904,-81.95356,174.8486,-0.7421683,-0.6464653,-0.1374453,-0.1112545
31229,-0.08989403,-0.4903409,-0.6723779,0.05633854,-0.2564181,-0.9259217,7.781433,0.004788574,-1.436572,14.875,8.25,-29,27.83572,-81.99389,172.4424,-0.7413933,-0.6473389,-0.1391788,-0.1091682
31241,-0.08919355,-0.4939916,-0.6856746,0.05022488,-0.2617584,-0.9533764,7.652142,0.4405488,-1.604172,-4,11.25,-23.125,30.41303,-82.02267,169.5597,-0.7407997,-0.6486138,-0.1394909,-0.1051583
31253,-0.08856983,-0.4975582,-0.6985264,0.04739486,-0.2710146,-0.9765791,7.85805,0.8810977,-1.508401,1.75,14.5,-21.25,33.28257,-82.08778,166.4722,-0.7397365,-0.6501946,-0.1403868,-0.1016289
31264,-0.0879334,-0.5011716,-0.7113246,0.04941627,-0.2805654,-0.9937233,8.322542,1.115738,-1.201932,32.375,15.875,-24,36.70359,-82.19384,163.2333,-0.7378033,-0.6518297,-0.1437732,-0.1004669
31276,-0.08723021,-0.5048858,-0.7244399,0.05400381,-0.2852452,-1.007244,8.662531,0.8906748,-0.900252,66.25,13.75,-28.125,40.30017,-82.30005,160.268,-0.7352874,-0.6530662,-0.1497048,-0.1022036
31288,-0.08643349,-0.5089268,-0.7391097,0.0553972,-0.280979,-1.020011,8.844497,0.2394287,-0.900252,85.625,9.5,-31.75,43.61934,-82.36146,157.9353,-0.7326639,-0.6535195,-0.1574736,-0.1063864
31300,-0.08579063,-0.5123745,-0.7521077,0.05104883,-0.2737812,-1.032162,8.753514,-0.158023,-1.182778,71.625,6.5,-30.375,45.67776,-82.35417,156.5678,-0.7311084,-0.653453,-0.1628462,-0.1093653
31311,-0.08522984,-0.5158411,-0.7657225,0.0431749,-0.2668828,-1.048177,8.461411,-0.2154858,-1.398264,35.125,5.25,-23.875,46.92685,-82.32468,155.5536,-0.7304276,-0.6535488,-0.1651306,-0.1099148
31323,-0.084749,-0.5192974,-0.7796857,0.03676679,-0.2642883,-1.067686,8.183674,0.1436572,-1.379109,-10.875,5.375,-13.625,47.65982,-82.32,154.4442,-0.7304486,-0.6544204,-0.1634875,-0.1070079
31334,-0.08428376,-0.5227609,-0.7936797,0.03612371,-0.2689219,-1.086571,8.193251,0.8571548,-1.163624,-35.125,4.875,-5.5,48.59831,-82.33241,152.8076,-0.73056,-0.6559412,-0.1600677,-0.1019882
31345,-0.08373351,-0.5264282,-0.8080562,0.04213268,-0.2808039,-1.100807,8.552394,1.61375,-0.9050406,-23.125,2.25,-1.875,50.06484,-82.32205,150.7777,-0.7303374,-0.657427,-0.1578225,-0.09741229
31357,-0.08310129,-0.5302468,-0.8225179,0.04854989,-0.2932463,-1.11056,8.882805,1.723887,-0.9241948,17.875,-1.625,-4.5,51.55595,-82.24379,149.2594,-0.729893,-0.6578681,-0.1589156,-0.09597734
31368,-0.08247378,-0.5341656,-0.8370972,0.04816213,-0.3007788,-1.118994,8.973788,1.211509,-1.312069,66.375,-3.875,-11.25,52.65469,-82.08496,148.7769,-0.7294211,-0.6568174,-0.1637805,-0.09854774
31380,-0.08193497,-0.5380521,-0.8516089,0.0419054,-0.3022663,-1.128607,8.882805,0.6081489,-1.58023,88.5,-2.75,-15.5,53.33781,-81.92645,148.9977,-0.7288894,-0.6551028,-0.1700322,-0.1031969
31391,-0.08149296,-0.5419616,-0.8665803,0.03368428,-0.2979307,-1.140942,8.729571,0.1197144,-1.527555,79.75,0.125,-14.75,53.64007,-81.85143,149.5089,-0.7282739,-0.6536798,-0.1751764,-0.1078569
31403,-0.08113525,-0.5457667,-0.8816675,0.02738526,-0.2913054,-1.155043,8.624223,-0.004788574,-1.307281,52.5,2.125,-10.875,53.73311,-81.86721,149.8676,-0.7277231,-0.6531177,-0.1777491,-0.1107325
31414,-0.08078926,-0.5495007,-0.8969953,0.026367,-0.2845623,-1.168099,8.743937,0.1532344,-0.933772,24.75,1.875,-6.625,53.87843,-81.95182,149.8042,-0.7272078,-0.6534984,-0.1779696,-0.111515
31426,-0.08039971,-0.5533355,-0.9132237,0.02831652,-0.278757,-1.17965,8.906748,0.3352002,-0.775749,10.625,-0.625,-4.75,54.05192,-82.03222,149.5166,-0.7268853,-0.6541765,-0.1771036,-0.1110186
31438,-0.08002707,-0.5569509,-0.928817,0.02844539,-0.2759849,-1.190326,8.897171,0.4788574,-0.9768692,9.25,-2,-4.75,54.17247,-82.04996,149.2683,-0.7268661,-0.6545308,-0.1763791,-0.1102073
31449,-0.0796637,-0.5605319,-0.9443355,0.02811584,-0.2770736,-1.200752,8.86844,0.7470176,-1.125315,18.75,-1.625,-6.625,54.63474,-82.01443,148.8028,-0.7267461,-0.6546291,-0.1767966,-0.1097439
31462,-0.07926549,-0.5645865,-0.9620383,0.02726919,-0.2776587,-1.212269,8.887594,0.708709,-1.139681,36.375,-0.25,-9.875,55.45115,-81.96911,148.2443,-0.7262003,-0.6544883,-0.1789695,-0.1106711
31473,-0.0789724,-0.5679908,-0.9772885,0.02349261,-0.2728626,-1.222366,8.897171,0.225063,-1.187566,44.5,2.125,-13.375,56.0162,-81.96695,148.0097,-0.7255492,-0.6542967,-0.181218,-0.1124024
31485,-0.07871885,-0.5713829,-0.9931936,0.01964289,-0.2627905,-1.23219,8.992943,-0.1292915,-1.015178,33.375,4.125,-14.25,56.52639,-82.03637,147.7018,-0.7247661,-0.6546176,-0.1823964,-0.1136723
31496,-0.07847463,-0.5746489,-1.009372,0.01872361,-0.2504012,-1.240422,9.160542,-0.1771773,-0.7326519,14.875,4,-13.875,57.15058,-82.15053,147.0389,-0.7239791,-0.6555995,-0.1820681,-0.1135551
31507,-0.0782524,-0.5777262,-1.025455,0.01723368,-0.2386464,-1.247231,9.256314,-0.1484458,-0.7853262,-5.625,1.75,-13,57.58207,-82.23275,146.3029,-0.7236984,-0.6567286,-0.1802261,-0.1117441
31519,-0.07807283,-0.5807332,-1.041891,0.01370496,-0.2294905,-1.254326,9.208428,-0.009577149,-1.000812,-27.875,0.625,-10.25,57.72082,-82.27961,145.5606,-0.7240129,-0.6579711,-0.1766412,-0.1080613
31530,-0.07790965,-0.5836682,-1.058326,0.01256386,-0.2259832,-1.265421,8.863651,0.4453374,-0.9529263,-52.5,0.375,-4.875,57.87158,-82.32011,144.4833,-0.7246169,-0.6596565,-0.1712237,-0.1023035
31542,-0.07772394,-0.5866507,-1.075005,0.0142965,-0.2295935,-1.28401,8.245925,1.010389,-0.8667319,-63.625,0,0.375,58.22087,-82.33607,143.0533,-0.7252772,-0.6615273,-0.1651189,-0.09534339
31553,-0.07750215,-0.5897579,-1.09197,0.01711709,-0.2398089,-1.309301,7.676085,1.498824,-0.8858863,-58.125,-0.125,4.5,58.75726,-82.30678,141.5028,-0.7258695,-0.6631622,-0.1596848,-0.08848908
31565,-0.07724154,-0.5930685,-1.109456,0.01992547,-0.2531262,-1.336974,7.484541,1.723887,-0.9241948,-41.125,0.125,6.625,59.33537,-82.25636,140.1204,-0.72629,-0.6644078,-0.1555715,-0.08284082
31576,-0.07694857,-0.5965102,-1.127139,0.02256767,-0.2651153,-1.362113,7.671296,1.661635,-0.9050406,-18.625,0.375,8,59.7099,-82.23838,139.2401,-0.7264726,-0.665249,-0.1529224,-0.07934846
31588,-0.07661165,-0.6000953,-1.145225,0.02576274,-0.2741339,-1.382908,8.044805,1.489247,-0.8188462,4.375,-1,7.875,59.85057,-82.25225,138.8918,-0.726476,-0.6656755,-0.1517268,-0.07802407
31599,-0.07631082,-0.6036708,-1.163197,0.02343812,-0.2785743,-1.400239,8.293811,1.039121,-1.144469,23.75,-2.5,6.25,59.2745,-82.25374,139.52,-0.7268044,-0.6652439,-0.1517147,-0.07866825
31611,-0.07609968,-0.6073003,-1.181682,0.01618056,-0.2781376,-1.416571,8.408736,0.5458975,-1.403052,30.625,-2.375,4.75,58.12141,-82.2665,140.823,-0.7273821,-0.6643742,-0.1518986,-0.08030638
31622,-0.07594547,-0.61092,-1.200444,0.01179011,-0.2767548,-1.434523,8.312965,0.517166,-1.168412,24.25,-2.875,6.125,57.01166,-82.31423,141.9964,-0.7278453,-0.6638208,-0.1514371,-0.08154795
31634,-0.07578168,-0.6146009,-1.219773,0.01232277,-0.2769315,-1.454192,8.221982,0.7230747,-0.8475776,14.75,-6.625,9.5,55.89014,-82.36738,143.0472,-0.7283698,-0.6634831,-0.1501609,-0.08197203
31645,-0.07562828,-0.6180805,-1.238241,0.0122279,-0.2773694,-1.47214,8.265079,0.708709,-0.9194063,11.625,-11,11.75,54.35949,-82.37811,144.4684,-0.7293048,-0.6627775,-0.148604,-0.08220303
31656,-0.07553264,-0.6217268,-1.257753,0.007298824,-0.2782612,-1.488976,8.375216,0.6033604,-1.321646,9.625,-12.75,12.875,52.19542,-82.32757,146.494,-0.7308432,-0.6614763,-0.1467323,-0.08238368
31668,-0.07552876,-0.6254271,-1.277669,0.0002923841,-0.2794559,-1.504146,8.494931,0.5554746,-1.517978,6,-11.125,13.875,49.90892,-82.27221,148.5934,-0.7324708,-0.6601755,-0.1444634,-0.08237235
31680,-0.07561864,-0.6292873,-1.298804,-0.00646737,-0.2777727,-1.520799,8.466199,0.3304116,-1.426995,-3,-7.875,14.875,47.46537,-82.28423,150.7174,-0.7339398,-0.6593436,-0.1410107,-0.08194165
31691,-0.07575069,-0.6327823,-1.318444,-0.010339,-0.2736449,-1.537807,8.370428,0.1532344,-1.182778,-21.5,-4.25,16.5,45.22509,-82.384,152.4277,-0.7349896,-0.6593913,-0.1361266,-0.08039331
31703,-0.07585226,-0.6363908,-1.339152,-0.007621776,-0.2707663,-1.553837,8.538028,0.3830859,-0.7374405,-38.5,-2.875,18.375,43.32202,-82.56128,153.5451,-0.7356129,-0.6603618,-0.1297242,-0.07725081
31714,-0.07583621,-0.6398438,-1.359141,0.001255931,-0.270183,-1.564038,8.973788,0.6799775,-0.3447773,-40.875,-5.625,18.375,41.89496,-82.7341,154.1827,-0.7359596,-0.6615432,-0.1236475,-0.0737244
31727,-0.07569191,-0.6437187,-1.381561,0.01010932,-0.2714684,-1.570725,9.285046,0.7805376,-0.483646,-26.375,-10.75,14.875,40.40336,-82.80637,155.0006,-0.7366768,-0.6620181,-0.118546,-0.07061346
31738,-0.07551695,-0.6472708,-1.401944,0.01351943,-0.2744823,-1.575059,9.37124,0.8188462,-0.8954634,-3.75,-15,8.625,39.29144,-82.72404,155.7991,-0.7377264,-0.661417,-0.1162698,-0.06905514
31750,-0.07535642,-0.6508616,-1.422126,0.01254721,-0.2806625,-1.577424,9.462223,0.9768692,-1.336012,10,-16.625,5.375,38.42438,-82.5381,156.5342,-0.7390679,-0.6601417,-0.1155079,-0.06818719
31761,-0.07525364,-0.6546112,-1.442563,0.007940449,-0.2896546,-1.578752,9.490954,1.110949,-1.709521,15.375,-15.75,6.125,37.54306,-82.30865,157.3512,-0.7405953,-0.6585317,-0.115224,-0.06766126
31773,-0.07520967,-0.6585401,-1.46346,0.003326952,-0.2973079,-1.581319,9.40476,0.9864463,-1.699944,17.75,-13.75,8.5,36.44996,-82.12059,158.4093,-0.7419966,-0.65703,-0.1147871,-0.06764992
31784,-0.07520337,-0.6624438,-1.483797,0.0004902077,-0.3039127,-1.583278,9.462223,0.9433491,-1.594595,16.625,-12,11,35.29665,-81.99132,159.512,-0.7431414,-0.6558561,-0.1140024,-0.06780221
31795,-0.07520194,-0.6664912,-1.504308,0.0001110079,-0.3117168,-1.579658,9.902772,1.077429,-1.513189,21,-11,13.125,34.18306,-81.89928,160.6277,-0.7440469,-0.6548682,-0.1134119,-0.06840811
31807,-0.07518462,-0.6707065,-1.525041,0.001309085,-0.318738,-1.567779,10.53486,1.039121,-1.489247,31.75,-11.375,14.25,32.93167,-81.82536,162.0222,-0.7448189,-0.6538036,-0.1134419,-0.07011815
31818,-0.07515847,-0.6748199,-1.544766,0.002056193,-0.3233829,-1.550665,10.98499,0.8523662,-1.570652,48,-12.875,13,31.65042,-81.73554,163.6502,-0.7455391,-0.6524429,-0.1146147,-0.07316546
31830,-0.07514782,-0.679061,-1.564768,0.0008181605,-0.3260136,-1.537565,10.64021,0.5985718,-1.666424,60.75,-13.75,10.375,30.38005,-81.6096,165.4452,-0.7462995,-0.6506964,-0.1168497,-0.0773132
31841,-0.07517393,-0.6833561,-1.584974,-0.001986518,-0.3268476,-1.537637,9.629823,0.3543545,-1.632904,55.625,-13.5,10.125,28.99751,-81.47085,167.2924,-0.7471737,-0.6488984,-0.1186216,-0.08118711
31853,-0.07521837,-0.6875996,-1.605035,-0.003429936,-0.3274813,-1.548147,8.844497,0.3064688,-1.441361,28.625,-13.375,14.5,27.35278,-81.3548,169.0409,-0.7482373,-0.6475472,-0.1180171,-0.08303991
31864,-0.07525337,-0.6918187,-1.625081,-0.002724924,-0.3284644,-1.560614,8.705628,0.3399888,-1.288126,-5.25,-14.25,20.625,25.34956,-81.25857,170.7044,-0.7495867,-0.6466985,-0.1144981,-0.08240756
31876,-0.07527503,-0.6961361,-1.645558,-0.001654745,-0.329919,-1.564812,9.347297,0.3591431,-1.393475,-32.5,-16.25,24.375,23.04518,-81.13437,172.3016,-0.7513759,-0.6459814,-0.1086218,-0.07964715
31887,-0.07528809,-0.7004673,-1.665955,-0.0009959595,-0.330275,-1.55537,10.37205,0.2537944,-1.594595,-43.75,-18.625,23.375,20.75858,-80.96728,173.7336,-0.7534208,-0.6451421,-0.1019214,-0.07590102
31899,-0.07531639,-0.7048984,-1.686917,-0.002073209,-0.3245956,-1.535564,11.09034,-0.2346401,-1.776561,-53.375,-21.125,19.625,18.35096,-80.74686,175.1288,-0.7558008,-0.6440631,-0.0941967,-0.07123772
31911,-0.07537543,-0.7090877,-1.706788,-0.00449377,-0.318868,-1.512462,11.36808,-0.292103,-1.98247,-72.75,-22,15.625,16.41653,-80.49819,175.8386,-0.7582751,-0.6430274,-0.08567971,-0.06475865
31922,-0.07546607,-0.713278,-1.726439,-0.006853385,-0.316848,-1.485894,11.59314,0,-2.130916,-83.25,-20.75,10.625,15.16631,-80.24783,175.7193,-0.7606125,-0.6421297,-0.07697899,-0.05667629
31934,-0.07558078,-0.7173779,-1.745235,-0.008901628,-0.3181675,-1.458603,11.68412,0.292103,-2.21711,-74.75,-17.75,2.75,14.77551,-80.03088,174.8907,-0.7624437,-0.6414123,-0.06995856,-0.04874282
31946,-0.07574198,-0.7220816,-1.765868,-0.01113609,-0.324932,-1.425337,11.83736,0.7278633,-2.327247,-50.75,-12.25,-7.75,15.52969,-79.84176,173.1228,-0.7637317,-0.6409152,-0.06529415,-0.04096812
31958,-0.07585941,-0.7263,-1.783385,-0.009333512,-0.3352985,-1.39235,12.18213,1.206721,-2.15007,-14.375,-7.5,-15.375,17.00004,-79.74547,171.2336,-0.7640623,-0.6408581,-0.06465006,-0.03647049
31970,-0.07590428,-0.7310858,-1.802206,-0.003215899,-0.3430183,-1.348981,12.71845,1.077429,-1.910641,29,-5.125,-23.875,19.15206,-79.68832,169.2354,-0.7637511,-0.6409694,-0.06790239,-0.03509877
31982,-0.07589355,-0.7358394,-1.820399,0.0007658303,-0.3393537,-1.298769,13.20689,0.3399888,-2.030355,56.375,-4.625,-32.25,21.37449,-79.61707,167.5703,-0.7632802,-0.6408436,-0.07351524,-0.03631131
31994,-0.07591394,-0.7403948,-1.837733,-0.001465774,-0.327511,-1.246256,13.36012,-0.2346401,-2.408653,47.5,-3.125,-35.75,23.38417,-79.52178,166.0029,-0.7629541,-0.6406288,-0.07830895,-0.03692636
32007,-0.07601884,-0.7448135,-1.854578,-0.00744411,-0.3135635,-1.195343,13.16858,-0.3447773,-2.614562,11,-0.25,-32.75,25.06877,-79.44338,164.2517,-0.7627469,-0.6408143,-0.07988989,-0.03452288
32018,-0.07621571,-0.7488095,-1.86982,-0.01489438,-0.3023102,-1.153154,12.72324,-0.1723887,-2.691179,-40.25,4,-24.5,26.16978,-79.42485,162.4022,-0.7625964,-0.6416611,-0.07690886,-0.02833295
32030,-0.07648986,-0.7526692,-1.884311,-0.02111869,-0.2973375,-1.116319,12.35452,0.3735088,-2.58583,-73.75,8.375,-18.25,27.21022,-79.46315,160.1817,-0.7621915,-0.6431188,-0.07129343,-0.01948387
32041,-0.07679632,-0.7564634,-1.897986,-0.02420743,-0.2997007,-1.08012,12.36889,1.067852,-2.375133,-70.875,11.375,-18.125,28.69692,-79.52238,157.575,-0.7613435,-0.6448537,-0.06637848,-0.01066343
32053,-0.0771418,-0.76047,-1.911662,-0.02632209,-0.3052666,-1.041969,12.4072,1.417418,-2.269784,-33.625,12.625,-23.375,30.80755,-79.55244,154.7961,-0.7601686,-0.6464878,-0.06465095,-0.004191263
32064,-0.07752823,-0.7644812,-1.92478,-0.02966163,-0.30789,-1.006955,12.1965,1.259395,-2.264996,5.625,13.375,-29.375,33.16129,-79.54193,152.3004,-0.7589306,-0.6477981,-0.06618939,-0.0009088791
32076,-0.0780038,-0.7686803,-1.938229,-0.0344867,-0.3044971,-0.9752503,11.84693,0.8475776,-2.21711,31.125,14.375,-32.25,35.56702,-79.52737,150.1053,-0.7575801,-0.6490066,-0.06973448,5.100602E-05
32088,-0.07851779,-0.7725555,-1.950647,-0.03926635,-0.2960454,-0.9486822,11.62666,0.4788574,-2.11655,34.375,14.375,-31,37.52438,-79.53728,148.3935,-0.7563142,-0.6501311,-0.07292709,0.000229209
32099,-0.07910977,-0.776292,-1.962793,-0.04503783,-0.2842712,-0.9240974,11.49258,0.2490059,-2.106973,25.125,13.375,-27.625,39.06591,-79.56376,146.9759,-0.7551959,-0.6511997,-0.07495134,0.0007311656
32111,-0.07978223,-0.7798173,-1.974479,-0.05195126,-0.2723546,-0.9027737,11.26752,0.225063,-2.135704,11.5,12.375,-23.25,40.21663,-79.59737,145.7669,-0.7542785,-0.6521922,-0.07553241,0.002025243
32123,-0.08063772,-0.7835618,-1.987132,-0.05988333,-0.2621038,-0.8857242,10.79823,0.4070288,-2.08303,-0.625,10.625,-17.125,41.09455,-79.63807,144.6422,-0.753497,-0.6531742,-0.07475,0.004270542
32135,-0.0814911,-0.7868106,-1.998289,-0.06700516,-0.2550884,-0.8759882,10.35769,0.5458975,-2.025567,-1,7.5,-12.875,41.56427,-79.65506,143.9405,-0.7530886,-0.6537412,-0.07377206,0.006139206
32146,-0.0824651,-0.7900388,-2.009581,-0.07505589,-0.2487618,-0.8701502,10.03206,0.5794175,-2.044721,1.25,3.125,-9.125,41.61525,-79.64024,143.6761,-0.7531024,-0.6538345,-0.07265548,0.007642895
32157,-0.08354344,-0.7931888,-2.020797,-0.08324424,-0.2431698,-0.8658248,9.90756,0.6225147,-2.054298,3.75,-1.375,-5.125,41.25254,-79.60123,143.8512,-0.7535082,-0.6534898,-0.07141927,0.008712442
32169,-0.08472776,-0.796307,-2.032112,-0.09021293,-0.2375213,-0.8618989,9.883617,0.6225147,-1.968104,11,-5.625,-2.75,40.61082,-79.54483,144.392,-0.7541875,-0.6528019,-0.07049399,0.009029347
32180,-0.0859653,-0.7992878,-2.0432,-0.09576992,-0.23068,-0.8581268,9.897983,0.517166,-1.886698,21.875,-9.875,-2.125,39.75906,-79.46777,145.2817,-0.755109,-0.6517732,-0.0702367,0.008309412
32192,-0.08728763,-0.8021858,-2.05431,-0.1016947,-0.2228678,-0.8543834,9.893194,0.4213945,-1.939373,27.375,-12.375,-1.375,38.70975,-79.36951,146.4396,-0.756258,-0.6504532,-0.07025412,0.006999373
32203,-0.08868633,-0.8049877,-2.065425,-0.1072541,-0.2148515,-0.8523437,9.763903,0.3687202,-1.925007,26.25,-13.875,1.375,37.45167,-79.2749,147.7884,-0.7575207,-0.6490314,-0.06992717,0.005563711
32215,-0.09019937,-0.8077908,-2.076998,-0.1114907,-0.2065514,-0.8527538,9.591515,0.3304116,-1.819658,19.75,-15.125,4.875,35.94506,-79.19556,149.296,-0.7588558,-0.647604,-0.06875926,0.004387612
32227,-0.09172304,-0.81046,-2.088434,-0.1139699,-0.1996636,-0.8554283,9.428702,0.3878745,-1.709521,11.375,-16.375,8.125,34.35476,-79.1256,150.7691,-0.7601705,-0.6462729,-0.0667645,0.003835287
32238,-0.09321575,-0.8130206,-2.099659,-0.1142876,-0.196051,-0.8593949,9.323354,0.5985718,-1.585018,5.375,-18.125,11.5,32.79154,-79.05151,152.1306,-0.7614567,-0.6450085,-0.0642898,0.003840099
32250,-0.09468726,-0.8155627,-2.110929,-0.1127596,-0.1947924,-0.8635712,9.308989,0.7565947,-1.489247,4.625,-20.125,14.125,31.21235,-78.96654,153.491,-0.7627742,-0.6437034,-0.06169244,0.003931561
32261,-0.09608997,-0.8180397,-2.122013,-0.1097491,-0.1938002,-0.8672418,9.356874,0.7518061,-1.412629,4.125,-22.125,16.75,29.52977,-78.88216,154.948,-0.7641166,-0.6423716,-0.05890015,0.003912636
32273,-0.09748543,-0.8205614,-2.133456,-0.1061351,-0.1917981,-0.8703392,9.419126,0.641669,-1.412629,0.25,-23.125,18.875,27.62132,-78.79707,156.5713,-0.7655424,-0.6409762,-0.05548299,0.003998782
32284,-0.09882887,-0.8230307,-2.144813,-0.103215,-0.1897071,-0.8725049,9.476588,0.5889946,-1.508401,-7.375,-22.75,21.125,25.6043,-78.7117,158.2052,-0.766969,-0.6396108,-0.05134103,0.004564119
32296,-0.1002383,-0.8257062,-2.157112,-0.100219,-0.1902556,-0.8746212,9.4718,0.742229,-1.565864,-13.625,-21.125,23.125,23.51049,-78.62352,159.7926,-0.768379,-0.6382863,-0.04637329,0.005815456
32308,-0.1014789,-0.8282072,-2.168407,-0.09648491,-0.1945038,-0.8784546,9.318565,0.9912349,-1.498824,-11.125,-19.375,23.875,21.85138,-78.55328,161.016,-0.7694482,-0.637275,-0.04220397,0.006997267
32320,-0.1026802,-0.8308362,-2.179955,-0.09192944,-0.2011785,-0.8836688,9.218005,1.134892,-1.450938,3.875,-18.125,22.125,20.47129,-78.48223,162.1488,-0.7703759,-0.6363323,-0.0393732,0.007204142
32331,-0.1038176,-0.8335224,-2.191465,-0.087695,-0.2071123,-0.887448,9.323354,1.053486,-1.513189,22.25,-16.375,18.875,19.30091,-78.41506,163.3178,-0.7711881,-0.6354371,-0.03811828,0.005967803
32342,-0.1049067,-0.8362642,-2.20302,-0.08382402,-0.2110175,-0.8892683,9.476588,0.8667319,-1.585018,37.625,-13.875,15.75,18.253,-78.36644,164.5717,-0.7718427,-0.6346619,-0.03810023,0.003423353
32354,-0.1059585,-0.8390472,-2.214672,-0.08042474,-0.2128011,-0.8909535,9.490954,0.6608232,-1.632904,41.125,-11.125,14.375,17.21109,-78.3457,165.8721,-0.7723211,-0.6340756,-0.03831466,0.0004649892
32365,-0.1069585,-0.8417969,-2.226185,-0.07756677,-0.2132845,-0.8930504,9.457435,0.517166,-1.666424,33.875,-7.875,14.875,16.12777,-78.36289,167.119,-0.7725822,-0.6337806,-0.03788277,-0.001974907
32377,-0.107923,-0.8445872,-2.237885,-0.07387641,-0.2137383,-0.8961946,9.395183,0.4740689,-1.589807,22.75,-5.25,16.5,14.97211,-78.42442,168.2936,-0.7726002,-0.6338328,-0.03649786,-0.003594195
32389,-0.1088919,-0.8476708,-2.250792,-0.06761825,-0.2151977,-0.9007856,9.347297,0.5075889,-1.417418,15.125,-4.25,16.625,13.78436,-78.52609,169.3913,-0.7723832,-0.6342068,-0.03442816,-0.00456209
32401,-0.1097312,-0.8506132,-2.263124,-0.06151773,-0.2156713,-0.9039347,9.443069,0.4118174,-1.412629,16.75,-4.375,13.25,12.81575,-78.61234,170.3021,-0.7721619,-0.6345534,-0.03283661,-0.005447571
32413,-0.1104798,-0.8534057,-2.274913,-0.05755165,-0.2146775,-0.9062163,9.476588,0.2681602,-1.551498,16.25,-3.875,9.75,12.01009,-78.67223,171.0532,-0.7720258,-0.6347808,-0.03149949,-0.006115973
32424,-0.1112084,-0.8562083,-2.286824,-0.05568014,-0.2141639,-0.9102692,9.313777,0.2729487,-1.68079,6.625,-2.5,8.625,11.28871,-78.72041,171.5954,-0.7719281,-0.6349941,-0.0295922,-0.005824707
32436,-0.1119059,-0.858981,-2.298551,-0.05449621,-0.2166355,-0.9162008,9.146177,0.4884346,-1.704732,-0.375,-1.625,8.625,10.76696,-78.76316,171.8489,-0.7718132,-0.6352398,-0.0274398,-0.00468566
32447,-0.1125997,-0.8619052,-2.310689,-0.05279057,-0.2224917,-0.9235696,9.050406,0.7374405,-1.652058,5.5,-1.5,7.25,10.53933,-78.80454,171.876,-0.7716396,-0.6355174,-0.02601591,-0.003647784
32459,-0.1132696,-0.864887,-2.322817,-0.05145285,-0.2290386,-0.9315488,8.992943,0.7901148,-1.666424,16.5,-2,5.875,10.44389,-78.83018,171.9168,-0.7715196,-0.6356823,-0.0255746,-0.003419133
32470,-0.113937,-0.8679187,-2.335095,-0.0510953,-0.2321035,-0.9399446,8.959422,0.5075889,-1.723887,22.125,-2.5,5.5,10.13233,-78.8441,172.252,-0.7715017,-0.6357108,-0.02532321,-0.003961395
32481,-0.1145774,-0.8708978,-2.347204,-0.05003443,-0.2327562,-0.9460938,9.1366,0.3160459,-1.690367,14,-2.375,6.75,9.600946,-78.87526,172.7039,-0.7714307,-0.6358389,-0.02422408,-0.004084222
32493,-0.1152041,-0.8739496,-2.359627,-0.04797149,-0.2336114,-0.9509173,9.261103,0.3208345,-1.632904,0.625,-2.625,9.375,8.896894,-78.91875,173.1482,-0.7713194,-0.6360627,-0.0219136,-0.003206934
32504,-0.1158175,-0.8770245,-2.372119,-0.04701271,-0.2356595,-0.9574129,9.117445,0.3926631,-1.690367,-12,-3.125,12.125,8.066615,-78.94338,173.5498,-0.771323,-0.6361727,-0.01853412,-0.001320637
32516,-0.1164824,-0.8804178,-2.3857,-0.04728187,-0.2413232,-0.9658761,8.992943,0.6225147,-1.762195,-20.875,-2.75,15.75,7.119378,-78.95823,173.9014,-0.7713767,-0.6362208,-0.01409914,0.001560446
32528,-0.1170901,-0.8836139,-2.398191,-0.04736121,-0.2490772,-0.973413,9.007308,0.8140576,-1.74783,-20.875,-2.625,18.5,6.235869,-78.97525,174.2348,-0.7713842,-0.6362774,-0.009991869,0.004209652
32540,-0.1177015,-0.8870018,-2.411047,-0.04661148,-0.2582805,-0.9801304,9.093503,0.900252,-1.695155,-6.125,-3.5,17.75,5.455764,-78.98842,174.6455,-0.7713871,-0.6363015,-0.007012907,0.005768621
32551,-0.1182914,-0.8904513,-2.42383,-0.04546298,-0.2658384,-0.9850644,9.232371,0.7661719,-1.690367,15.5,-4.625,14,4.824515,-78.98781,175.1985,-0.7714531,-0.6362353,-0.005834006,0.00555148
32564,-0.1189356,-0.8942768,-2.437915,-0.04517685,-0.2682672,-0.9877501,9.414337,0.3256231,-1.800504,27.625,-5.125,11.5,3.928312,-78.96852,176.1922,-0.771644,-0.6360209,-0.0053251,0.003844804
32575,-0.1195066,-0.8976777,-2.450476,-0.04493465,-0.2676606,-0.9886194,9.534052,0.07661719,-1.829235,20,-5.25,12.25,2.912906,-78.94956,177.1999,-0.7718196,-0.6358229,-0.004085535,0.002700299
32586,-0.120079,-0.9011586,-2.463382,-0.04387359,-0.2668122,-0.9892803,9.562783,0.02873145,-1.776561,4.75,-6,13.75,1.759906,-78.92735,178.1442,-0.7719935,-0.6356226,-0.001563356,0.002740948
32598,-0.1206304,-0.9046298,-2.476247,-0.04247439,-0.2673626,-0.9908723,9.495743,0.1101372,-1.743041,-5.625,-7.25,14.625,0.6447464,-78.88957,178.9143,-0.7722243,-0.6353367,0.001674761,0.003742103
32609,-0.1211663,-0.9081258,-2.48914,-0.04134395,-0.2697302,-0.9947281,9.318565,0.2298516,-1.738253,-10.875,-9.125,15.125,-0.3801409,-78.82147,179.5237,-0.7725949,-0.6348559,0.005202007,0.005317625
32621,-0.1217055,-0.9116971,-2.502213,-0.04130456,-0.2735595,-1.001428,9.088714,0.3256231,-1.790927,-12.625,-10.375,15.375,-1.321255,-78.72134,-179.9788,-0.7731193,-0.6341592,0.008797422,0.007169458
32632,-0.1222514,-0.9153037,-2.515313,-0.04205853,-0.2778596,-1.00923,8.988154,0.3495659,-1.84839,-13.125,-10.875,16.25,-2.266824,-78.60395,-179.4828,-0.7737158,-0.6333461,0.01244809,0.009037116
32644,-0.1228051,-0.918999,-2.528569,-0.04248785,-0.2835565,-1.017172,8.983365,0.4405488,-1.834024,-8.75,-11.125,16,-3.099752,-78.4868,-179.0458,-0.7742981,-0.6325369,0.01568066,0.01066344
32655,-0.1233551,-0.92282,-2.542055,-0.04177973,-0.2902816,-1.024507,9.050406,0.4980117,-1.771773,2.875,-11.625,13.625,-3.71873,-78.37671,-178.6719,-0.7748506,-0.631788,0.01782738,0.01152257
32666,-0.1238694,-0.9265816,-2.555212,-0.04028728,-0.2946549,-1.030665,9.131811,0.3112573,-1.74783,12.375,-12.25,11,-4.279711,-78.2702,-178.2212,-0.7753915,-0.6310845,0.01916876,0.01153209
32678,-0.1243693,-0.9304473,-2.568729,-0.03831896,-0.2963186,-1.036137,9.194062,0.07661719,-1.752618,12.5,-12.25,9.125,-4.893671,-78.16387,-177.7123,-0.7759202,-0.6303924,0.02055943,0.01142733
32690,-0.1248529,-0.9343722,-2.582504,-0.03658583,-0.2969096,-1.042019,9.160542,-0.0191543,-1.786138,3.25,-11.625,8.125,-5.503244,-78.05979,-177.3288,-0.7764156,-0.6296983,0.02262095,0.01213699
32701,-0.1252969,-0.9381599,-2.595791,-0.03504217,-0.2989279,-1.048624,9.083925,0.09098291,-1.786138,-7,-10.5,7.75,-5.970208,-77.97518,-177.21,-0.7767952,-0.6290975,0.02517032,0.01385724
32712,-0.1257289,-0.9421414,-2.609615,-0.03299323,-0.3041214,-1.055916,9.059982,0.3304116,-1.738253,-12.625,-9,7.125,-6.231633,-77.91864,-177.3855,-0.7770207,-0.6286398,0.02793114,0.01645373
32724,-0.1261437,-0.946334,-2.623879,-0.03088292,-0.312158,-1.062068,9.160542,0.5411089,-1.74783,-8.375,-7.625,5.875,-6.270009,-77.88456,-177.7401,-0.7771425,-0.6283132,0.03015163,0.01905271
32735,-0.126529,-0.9505943,-2.63806,-0.02896186,-0.3202257,-1.065902,9.323354,0.5602632,-1.795715,2.75,-6.25,3.25,-6.147748,-77.8687,-178.1002,-0.7771993,-0.6281306,0.03130292,0.02081685
32747,-0.1268886,-0.9549009,-2.652136,-0.02730816,-0.3270028,-1.068776,9.385606,0.4788574,-1.834024,10.125,-4.625,1.75,-6.007455,-77.87085,-178.3752,-0.7771749,-0.6280955,0.03185783,0.02191379
32759,-0.1272327,-0.95937,-2.666504,-0.0256758,-0.3334591,-1.072081,9.356874,0.4549146,-1.829235,11.875,-2.875,1.5,-5.875424,-77.89615,-178.62,-0.7770256,-0.6282243,0.03229512,0.02286108
32770,-0.1275383,-0.9636812,-2.680175,-0.02404799,-0.3393105,-1.075925,9.3042,0.4405488,-1.805292,12,-1.5,1.625,-5.77351,-77.93889,-178.8271,-0.7767785,-0.6284755,0.03272483,0.0237239
32783,-0.1278632,-0.968704,-2.695886,-0.02235078,-0.3455431,-1.080873,9.265891,0.4166059,-1.800504,12.5,-0.625,1.75,-5.689527,-77.99857,-179.0238,-0.776434,-0.6288409,0.0332147,0.02461966
32794,-0.1281277,-0.9731836,-2.709742,-0.02072724,-0.3510074,-1.085706,9.232371,0.4213945,-1.771773,13.5,0,1.375,-5.592468,-78.06087,-179.2066,-0.7760808,-0.6292306,0.03354009,0.02534801
32806,-0.1283711,-0.9777191,-2.723606,-0.01914902,-0.3569058,-1.090979,9.198852,0.4644917,-1.752618,13.875,0.5,1.375,-5.46636,-78.12964,-179.4138,-0.7756939,-0.6296634,0.03380333,0.02608298
32817,-0.1286093,-0.9824457,-2.737851,-0.0183362,-0.3637819,-1.096372,9.189274,0.5411089,-1.795715,12.625,0.875,2.75,-5.369786,-78.19587,-179.6124,-0.7753127,-0.6300749,0.0342226,0.02691934
32829,-0.128855,-0.9874636,-2.752691,-0.01822526,-0.3722724,-1.100946,9.256314,0.6512461,-1.843601,13.875,1.375,4.5,-5.306217,-78.26388,-179.7691,-0.7749206,-0.6305028,0.03463548,0.02765166
32840,-0.1290803,-0.9922505,-2.766577,-0.01792289,-0.3806703,-1.104245,9.33772,0.6895547,-1.829235,20.75,1.625,4.875,-5.249129,-78.33321,-179.8273,-0.7745421,-0.630968,0.03455175,0.02775357
32851,-0.1293023,-0.9972641,-2.780885,-0.0171663,-0.3877832,-1.106656,9.419126,0.5650518,-1.810081,30.375,1.625,4.375,-5.256585,-78.40804,-179.6938,-0.7741596,-0.6315116,0.03384651,0.02691625
32863,-0.1295156,-1.002369,-2.795324,-0.01637959,-0.3919553,-1.108559,9.457435,0.3256231,-1.824447,31.875,1.75,4,-5.420269,-78.48185,-179.3792,-0.7737775,-0.6320641,0.03319674,0.02571893
32874,-0.1297265,-1.007461,-2.809705,-0.01628961,-0.3932863,-1.110856,9.414337,0.1005601,-1.877121,20,2.125,5,-5.812904,-78.54799,-178.9883,-0.7733852,-0.6325371,0.03366905,0.02527072
32886,-0.1299478,-1.012603,-2.824208,-0.01701031,-0.3951521,-1.114572,9.299411,0.1388687,-1.901064,3.5,3.125,6.625,-6.278337,-78.61781,-178.7422,-0.7729151,-0.6329776,0.03542536,0.02620899
32897,-0.13019,-1.017797,-2.838779,-0.01863447,-0.3997181,-1.12131,9.064771,0.3543545,-1.891487,-7.5,3.875,7.625,-6.631694,-78.68975,-178.7557,-0.772402,-0.6333737,0.03785497,0.02828429
32909,-0.1304585,-1.023145,-2.853634,-0.0204326,-0.4070693,-1.130574,8.887594,0.5698403,-1.829235,-14.25,4.75,9.25,-6.917301,-78.77656,-178.9353,-0.7717779,-0.6338226,0.04073835,0.03111336
32920,-0.1307251,-1.028508,-2.868168,-0.02086124,-0.4195775,-1.137147,9.107868,0.9864463,-1.699944,-10.625,4.375,10.625,-6.971977,-78.8819,-179.2944,-0.7710739,-0.6343844,0.04305297,0.03388118
32932,-0.131016,-1.034198,-2.883173,-0.02217054,-0.4336354,-1.143513,9.127023,1.096583,-1.74783,19.25,2.5,6.375,-6.655516,-78.95646,-179.6395,-0.770677,-0.6348507,0.04280793,0.03448136
32943,-0.131326,-1.039989,-2.8982,-0.02375848,-0.4437724,-1.151677,8.978577,0.8092691,-1.771773,49.375,1.25,0.75,-6.184946,-79.00398,-179.7337,-0.7705568,-0.6352733,0.0401499,0.0325257
32955,-0.1316525,-1.045833,-2.913351,-0.02505365,-0.4485058,-1.162646,8.763091,0.3878745,-1.74783,56.625,1,-0.75,-5.957063,-79.04364,-179.4828,-0.7704819,-0.6356864,0.03721352,0.02958962
32966,-0.1319857,-1.05159,-2.928374,-0.02603313,-0.4497799,-1.17386,8.729571,0.1101372,-1.738253,43.125,1,1.25,-6.097405,-79.08137,-179.0432,-0.7703373,-0.6360451,0.03570518,0.02742774
32977,-0.1323344,-1.057522,-2.943939,-0.02652972,-0.4513249,-1.184153,8.830131,0.1149258,-1.709521,27.5,1,2.5,-6.316543,-79.12668,-178.7239,-0.7700932,-0.6363969,0.03538895,0.02651753
32989,-0.1326786,-1.06345,-2.959501,-0.02643259,-0.4552298,-1.194978,8.796611,0.292103,-1.632904,23.125,0.625,1.5,-6.304062,-79.17778,-178.6959,-0.7698198,-0.6367516,0.03512973,0.0262818
33001,-0.1330505,-1.069904,-2.97644,-0.02653759,-0.4605538,-1.208876,8.638588,0.3782974,-1.604172,24.25,0,0.125,-6.098217,-79.22327,-178.842,-0.7695966,-0.6370596,0.03454252,0.02613877
33013,-0.1334026,-1.075907,-2.992218,-0.02729068,-0.4653304,-1.222937,8.533239,0.3782974,-1.632904,25.5,-0.375,-0.625,-5.854208,-79.25121,-179.014,-0.7694753,-0.6372509,0.03385027,0.02594817
33024,-0.1337707,-1.082059,-3.008402,-0.02816236,-0.4705796,-1.238065,8.466199,0.4166059,-1.623327,26.75,-0.75,-1,-5.545815,-79.27328,-179.2332,-0.7693929,-0.6374049,0.03299125,0.02571292
33035,-0.1341452,-1.088227,-3.024656,-0.02888477,-0.4757175,-1.253601,8.427891,0.4166059,-1.604172,29.75,-1.375,-1.625,-5.198702,-79.28844,-179.4521,-0.7693584,-0.6375218,0.0318736,0.02525657
33047,-0.1345763,-1.095134,-3.042954,-0.0299539,-0.4799471,-1.271398,8.384793,0.3208345,-1.623327,32.125,-1.625,-2.5,-4.846291,-79.29573,-179.6249,-0.769376,-0.6376002,0.03046726,0.0244587
33059,-0.134966,-1.101202,-3.059145,-0.03097417,-0.4823229,-1.286919,8.384793,0.2202744,-1.637692,31,-1.125,-3.5,-4.564241,-79.30568,-179.7613,-0.7693655,-0.6376908,0.02933009,0.02380789
33071,-0.1353774,-1.107498,-3.076112,-0.0316084,-0.4837421,-1.303618,8.341697,0.1436572,-1.599384,27,-0.375,-4.625,-4.266587,-79.33051,-179.9577,-0.7692622,-0.6378691,0.02841914,0.0234761
33082,-0.1357872,-1.113807,-3.093317,-0.03148387,-0.4846564,-1.32186,8.236348,0.1101372,-1.517978,22.625,-0.25,-6.5,-3.870088,-79.36665,179.6931,-0.7690861,-0.6381078,0.02769523,0.02362119
33094,-0.1361908,-1.120089,-3.110702,-0.03114139,-0.4846616,-1.341204,8.150153,0.05267432,-1.484458,18.125,-0.375,-8.875,-3.368044,-79.40248,179.1837,-0.7689002,-0.6383313,0.02715785,0.02424977
33105,-0.1366015,-1.126392,-3.128453,-0.03149953,-0.4834433,-1.361544,8.073536,-0.0191543,-1.527555,10.625,-0.125,-11.125,-2.78324,-79.42937,178.498,-0.7687396,-0.6384767,0.02705259,0.02559609
33117,-0.1370277,-1.132671,-3.14645,-0.03275792,-0.4826933,-1.383397,7.944245,0.04788574,-1.565864,-0.25,1.25,-13.25,-1.995664,-79.45904,177.47,-0.7685205,-0.6386158,0.02749823,0.02810398
33128,-0.1374793,-1.138982,-3.164804,-0.03464159,-0.4840136,-1.407809,7.747913,0.2442173,-1.556287,-6.625,3.25,-14.75,-0.9128288,-79.50256,176.0621,-0.7681745,-0.6388478,0.02809023,0.03150504
33139,-0.137959,-1.145258,-3.183309,-0.03722784,-0.487004,-1.435954,7.431867,0.4166059,-1.532344,-6.75,5.125,-16.75,0.4720664,-79.55082,174.3544,-0.7677492,-0.6391538,0.02834472,0.03521651
33151,-0.1384864,-1.151683,-3.202531,-0.04027859,-0.4908242,-1.468228,7.149342,0.517166,-1.494035,-2.25,7.125,-18.125,2.09112,-79.60804,172.4671,-0.767219,-0.6395954,0.02805703,0.03880084
33162,-0.1390448,-1.158106,-3.222041,-0.04305188,-0.4951125,-1.504034,6.862027,0.5889946,-1.403052,5.375,8.75,-19.5,3.893093,-79.67555,170.4994,-0.7665844,-0.640207,0.02702857,0.04186745
33174,-0.1396352,-1.164597,-3.242121,-0.04540281,-0.4991915,-1.544243,6.541193,0.5985718,-1.297704,11.75,9.5,-20.375,5.799277,-79.74503,168.5115,-0.7658871,-0.6409315,0.02545367,0.04444935
33185,-0.1402397,-1.1711,-3.262666,-0.04669157,-0.5022425,-1.586886,6.359227,0.5411089,-1.173201,12.75,9.875,-20,7.62656,-79.82829,166.6171,-0.7650679,-0.641801,0.02393748,0.04679418
33197,-0.140851,-1.177653,-3.283926,-0.04685472,-0.5023292,-1.62946,6.411901,0.3352002,-1.096583,4.75,10,-18.5,9.110632,-79.93692,164.9641,-0.764085,-0.6427962,0.02343412,0.04937696
33208,-0.1414619,-1.184187,-3.305772,-0.04669286,-0.499429,-1.669849,6.598655,0.1388687,-1.106161,-9.75,9.625,-17,10.22804,-80.05379,163.4905,-0.7630235,-0.64375,0.02442271,0.05276902
33220,-0.1421009,-1.190934,-3.329051,-0.04692058,-0.4953946,-1.709252,6.790198,0.1053486,-1.154046,-31.75,10,-14.875,11.17865,-80.17959,161.8685,-0.7617707,-0.6446598,0.02740775,0.05803318
33232,-0.1427298,-1.197464,-3.352086,-0.04766111,-0.4948782,-1.745786,6.900336,0.4070288,-1.154046,-48,10.875,-12.75,12.31936,-80.29623,159.856,-0.7603546,-0.6455076,0.03135518,0.06479014
33243,-0.1433599,-1.204058,-3.375565,-0.04778723,-0.5000782,-1.780716,7.010473,0.8810977,-1.029544,-44.625,11.25,-12.625,14.05357,-80.39954,157.2875,-0.7587684,-0.6464636,0.03453243,0.07185431
33255,-0.1439657,-1.210628,-3.399014,-0.04687752,-0.5083475,-1.814401,7.05357,1.158835,-0.8810977,-32.5,10,-12.375,16.05132,-80.47839,154.6239,-0.757229,-0.6474417,0.03652111,0.07803634
33267,-0.1446706,-1.218107,-3.425958,-0.04846345,-0.5142259,-1.852541,7.02005,0.9912349,-1.058275,-29,9.75,-8.25,17.61148,-80.55211,152.3664,-0.7557646,-0.648258,0.03915424,0.08395449
33279,-0.1453126,-1.224538,-3.449364,-0.05166908,-0.5175669,-1.883669,7.12061,0.9194063,-1.216298,-28.5,12,-5.875,18.66425,-80.62843,150.7266,-0.7545084,-0.6489422,0.04168745,0.08861976
33290,-0.1460139,-1.23136,-3.474317,-0.05379046,-0.5233059,-1.914007,7.302576,1.115738,-1.082218,-11.75,13.875,-8.25,20.27566,-80.71746,148.718,-0.7530625,-0.6500168,0.04270602,0.09247322
33301,-0.1467077,-1.23825,-3.49953,-0.05337816,-0.5300905,-1.939895,7.65693,1.221087,-0.8906748,18.625,13.5,-12.875,22.36828,-80.79201,146.6268,-0.7517521,-0.6514025,0.04105171,0.09411856
33313,-0.1473914,-1.245117,-3.524792,-0.05309208,-0.5331869,-1.961502,7.982553,1.000812,-0.9720806,39.75,12.125,-15.25,24.23381,-80.84256,145.0405,-0.7508475,-0.6526822,0.03799832,0.09375633
33325,-0.1481026,-1.252217,-3.551233,-0.05325133,-0.531653,-1.979834,8.303388,0.7039204,-1.091795,51.5,10.875,-16.375,25.79648,-80.88751,143.9299,-0.7502229,-0.6538596,0.03423613,0.09198443
33336,-0.1487803,-1.258947,-3.576663,-0.05313198,-0.5276248,-1.993807,8.59549,0.5411089,-1.125315,56,9.25,-17.125,27.08655,-80.92225,143.1309,-0.7497881,-0.6548563,0.03046798,0.08973686
33347,-0.149465,-1.265741,-3.602738,-0.05263245,-0.522274,-2.004373,8.887594,0.4788574,-1.134892,54.625,6.5,-16.375,28.15262,-80.9435,142.5463,-0.7495033,-0.6556545,0.02690755,0.08739623
33359,-0.1501617,-1.272522,-3.629275,-0.05284962,-0.5143769,-2.012942,9.055194,0.3208345,-1.230664,44.125,3.875,-14,28.74449,-80.96189,142.3027,-0.7493662,-0.6561503,0.02449334,0.08554061
33370,-0.1508639,-1.279006,-3.655184,-0.05475882,-0.5056441,-2.020322,9.117445,0.2633716,-1.379109,25.75,2.25,-9.375,28.80294,-80.98721,142.3445,-0.7492918,-0.6563448,0.02395863,0.0848492
33382,-0.1515945,-1.285495,-3.681436,-0.05637954,-0.500801,-2.026085,9.227583,0.5746289,-1.316858,7.875,1.75,-4.625,28.81998,-81.02478,142.1891,-0.7490047,-0.6565359,0.02486547,0.08564183
33393,-0.1523548,-1.292185,-3.708463,-0.05705168,-0.5019811,-2.028011,9.500531,1.048698,-1.197144,6.125,0.25,0.125,28.89606,-81.06112,141.9368,-0.7486624,-0.6567414,0.02593833,0.08673253
33404,-0.1530921,-1.298548,-3.73393,-0.05863542,-0.5060152,-2.025212,9.835732,1.321646,-1.278549,22.125,-1.875,2.5,28.85257,-81.06686,142.0104,-0.7486817,-0.6567573,0.02582019,0.08648165
33416,-0.1538908,-1.305229,-3.760387,-0.06096018,-0.5099214,-2.0193,10.05601,1.316858,-1.374321,48,-3.375,2.875,28.64282,-81.05544,142.5901,-0.7491205,-0.6566626,0.0238301,0.08393344
33427,-0.1547422,-1.311993,-3.787041,-0.06418402,-0.5098925,-2.009497,10.3529,1.029544,-1.54671,78.125,-4.5,1.125,28.19756,-81.03056,143.8137,-0.7500204,-0.6564384,0.01964861,0.07856202
33439,-0.1556024,-1.318484,-3.812899,-0.06635171,-0.5007515,-1.994549,10.82218,0.3160459,-1.64727,98.375,-6.25,-2.125,27.38674,-81.01778,145.6557,-0.7511647,-0.6561086,0.01436895,0.0711812
33450,-0.1564612,-1.324639,-3.837916,-0.06770618,-0.485187,-1.972227,11.46385,-0.2154858,-1.74783,88,-7.625,-0.875,26.12976,-81.03277,147.7923,-0.7522194,-0.6556835,0.01043157,0.06431457
33462,-0.1574356,-1.330801,-3.863408,-0.0742645,-0.4696433,-1.942818,11.87566,-0.1676001,-2.221899,46.625,-7.25,8.25,24.11148,-81.05884,150.171,-0.7532006,-0.6549557,0.01016208,0.06015609
33473,-0.1584695,-1.336686,-3.888335,-0.0793848,-0.4518862,-1.913886,11.87566,-0.4405488,-2.154858,-3,-5.125,19.5,21.23319,-81.18851,152.7531,-0.7535768,-0.6545168,0.01468058,0.0592831
33485,-0.1595849,-1.342792,-3.914681,-0.0796665,-0.4361418,-1.881865,11.97622,-0.3256231,-1.786138,-41.5,-5.25,26,17.80412,-81.3803,155.3147,-0.753364,-0.6543089,0.02306055,0.06157041
33497,-0.1606208,-1.348333,-3.938507,-0.08043922,-0.4302768,-1.850134,12.11509,0.2873144,-1.776561,-60.25,-7.125,29,14.77422,-81.50041,157.2961,-0.7530974,-0.6538523,0.03192439,0.06559248
33508,-0.1617119,-1.353991,-3.962423,-0.08294601,-0.4300291,-1.818046,12.05763,0.675189,-1.84839,-56.625,-8.375,30.75,11.75968,-81.57061,159.2814,-0.7529351,-0.6531458,0.04054389,0.06960926
33520,-0.1628263,-1.359585,-3.985549,-0.08614569,-0.4325016,-1.787716,11.95228,0.8284234,-1.867544,-42.125,-8.625,30.5,8.94068,-81.60829,161.2743,-0.7528778,-0.6524066,0.04777508,0.07251485
33532,-0.164302,-1.365567,-4.007872,-0.1035088,-0.4195763,-1.565724,24.95326,0.4453374,-4.673648,-45.75,26.75,20,7.256606,-82.0487,162.0249,-0.7501636,-0.6544797,0.05517687,0.07659249
33545,-0.1668493,-1.370607,-4.025601,-0.1846898,-0.3654239,-1.285496,28.85595,-1.695155,-10.94668,-26.875,-51.375,36.125,0.8874094,-81.22741,167.7261,-0.7552816,-0.6478345,0.06374384,0.07613915
33557,-0.169705,-1.375297,-4.04481,-0.2043855,-0.3356645,-1.374819,3.107785,-1.637692,-2.336824,-162.75,56.75,32.75,-6.492568,-81.54959,172.6021,-0.7521063,-0.6479148,0.08485967,0.08568283
33568,-0.1725187,-1.380192,-4.063048,-0.2128547,-0.3702841,-1.379666,9.275469,2.968916,-1.063064,-182.25,59.25,26.125,-5.124509,-82.39316,168.5207,-0.7449889,-0.651323,0.09927373,0.1044734
33580,-0.1751284,-1.385218,-4.080291,-0.2053777,-0.39553,-1.35697,11.5692,2.059087,-0.225063,-105.375,13,22.25,-5.28126,-82.76199,167.0605,-0.741329,-0.6522599,0.1087574,0.1147188
33591,-0.177707,-1.39056,-4.097956,-0.1982322,-0.41068,-1.358058,9.701652,1.240241,-0.2059087,-39.625,15.75,9.125,-4.561457,-83.14056,165.5581,-0.7383019,-0.6540116,0.1128747,0.1201605
33603,-0.1802266,-1.396063,-4.115918,-0.1916762,-0.4186258,-1.366437,9.141388,0.7278633,-0.3112573,24.625,17.125,-5.25,-2.77105,-83.47929,163.8384,-0.7362897,-0.656408,0.1114194,0.1207967
33614,-0.1825769,-1.401487,-4.133754,-0.1802665,-0.4160198,-1.367976,9.696863,-0.1436572,-0.225063,23.125,10.125,-5.25,-2.298287,-83.77046,163.4228,-0.734629,-0.6583813,0.111002,0.1205525
33625,-0.184825,-1.406769,-4.151231,-0.1761131,-0.4137664,-1.369177,9.663342,0.04788574,-0.708709,-13.125,6.875,0.875,-2.565096,-83.95224,163.2775,-0.7331606,-0.6591265,0.1136945,0.122888
33637,-0.1871964,-1.412253,-4.169209,-0.1811377,-0.4189513,-1.373135,9.385606,0.8284234,-1.144469,-21.25,5.375,3,-2.220912,-84.01846,162.3975,-0.7321653,-0.6590424,0.1166118,0.1264864
33649,-0.1897187,-1.417906,-4.187266,-0.1924485,-0.431304,-1.37782,9.280257,1.532344,-1.388687,-7.25,4.75,2.625,-0.9764488,-84.00001,160.7955,-0.7317554,-0.6586755,0.1178555,0.1295793
33660,-0.1925373,-1.423944,-4.206045,-0.207557,-0.4446462,-1.382826,9.23716,1.685578,-1.608961,22.375,5,-0.25,0.7180923,-83.92485,159.1348,-0.7320356,-0.6584202,0.1164918,0.1305235
33672,-0.1954734,-1.429896,-4.224385,-0.2222458,-0.4504939,-1.388223,9.194062,1.187566,-1.805292,57.75,6,-4.625,2.050455,-83.83875,158.311,-0.7329298,-0.6585526,0.1126004,0.1282332
33684,-0.1985759,-1.435859,-4.24282,-0.2345899,-0.4508809,-1.393953,9.189274,0.7326519,-1.78135,64.875,8.375,-4.375,2.810781,-83.81338,158.1582,-0.7336388,-0.6590842,0.1085792,0.1248706
33695,-0.2017106,-1.441637,-4.260846,-0.2432653,-0.4483812,-1.398881,9.270679,0.4261831,-1.608961,53.375,10,-1.375,2.965935,-83.86774,158.4473,-0.7337863,-0.6598668,0.1059963,0.1220585
33708,-0.2053302,-1.448146,-4.281265,-0.2487568,-0.4473781,-1.403265,9.385606,0.4405488,-1.278549,41.625,10.875,1.125,3.097739,-84.00848,158.6431,-0.7333117,-0.6610785,0.1042152,0.1198687
33719,-0.2084444,-1.453799,-4.298889,-0.2484977,-0.451014,-1.406299,9.486166,0.6560347,-0.7709605,43.375,9.125,1,3.71889,-84.16605,158.3226,-0.7326404,-0.6624318,0.1023105,0.1181303
33730,-0.2115755,-1.459685,-4.317082,-0.2424359,-0.4558128,-1.408716,9.586726,0.5985718,-0.2968916,53.25,5.875,-0.875,4.634272,-84.34802,157.844,-0.731921,-0.6640927,0.09949246,0.1156453
33742,-0.21464,-1.465635,-4.335424,-0.2357321,-0.4576545,-1.410931,9.610668,0.3639317,-0.3016802,60.625,2.25,-2.625,5.264379,-84.48701,157.7515,-0.731575,-0.6655154,0.09621286,0.1123854
33753,-0.217609,-1.471502,-4.353627,-0.2305307,-0.4555794,-1.41334,9.586726,0.09577148,-0.483646,55.25,-1.25,-2.375,5.177516,-84.57027,158.3032,-0.7315621,-0.6664114,0.09368552,0.1092513
33765,-0.2205939,-1.477426,-4.372212,-0.2275104,-0.4514973,-1.416543,9.514897,-0.0191543,-0.6847661,31.375,-3.375,0.875,4.260839,-84.61858,159.379,-0.7315558,-0.6667261,0.09334803,0.1076503
33776,-0.2235556,-1.483292,-4.390633,-0.2283298,-0.4522642,-1.420193,9.447857,0.4070288,-0.8619434,13.125,-4.625,4,3.466353,-84.61304,160.0897,-0.7316056,-0.6665255,0.0942791,0.1077428
33788,-0.2266392,-1.489253,-4.409218,-0.2363254,-0.4568639,-1.42433,9.356874,0.8427891,-1.316858,12.75,-5,4.75,3.004348,-84.51385,160.4598,-0.7321433,-0.6657681,0.09495203,0.1081817
33799,-0.2298825,-1.495265,-4.427833,-0.2489726,-0.4614466,-1.428953,9.280257,0.9433491,-1.68079,19.625,-4.5,4.875,2.535767,-84.3634,160.9263,-0.7330601,-0.6647584,0.09505553,0.1080906
33810,-0.2332688,-1.501318,-4.446409,-0.2613041,-0.4671291,-1.433458,9.285046,1.019966,-1.661635,28.375,-3.125,5.375,2.223021,-84.23557,161.3495,-0.7339354,-0.6640006,0.09445318,0.107335
33822,-0.2367953,-1.507459,-4.4651,-0.271271,-0.4723909,-1.437819,9.313777,0.9289834,-1.513189,33.75,-1.875,6.25,1.819301,-84.15618,161.9335,-0.7346051,-0.6635975,0.09356667,0.1060143
33833,-0.2404201,-1.513667,-4.483947,-0.277355,-0.4749975,-1.442109,9.352086,0.6320918,-1.292915,36.125,-1.125,7,1.046483,-84.1377,162.9198,-0.7349879,-0.6635725,0.09279126,0.1041833
33846,-0.2443845,-1.520362,-4.504435,-0.2799528,-0.4728167,-1.446769,9.380817,0.1867544,-1.125315,38.875,-1.625,6.25,-0.3152536,-84.15567,164.5552,-0.7352533,-0.6637847,0.09207224,0.1015635
33857,-0.2479603,-1.526308,-4.522964,-0.2800639,-0.4656297,-1.451243,9.376028,-0.2873144,-1.067852,35,-1.75,4.875,-2.022882,-84.18854,166.4641,-0.7353629,-0.6640335,0.09199502,0.09918571
33869,-0.251642,-1.532274,-4.542053,-0.2808714,-0.4551337,-1.45623,9.33772,-0.5363203,-1.182778,26.5,-1.5,3,-3.920487,-84.20356,168.4601,-0.7354587,-0.6641106,0.09261487,0.09736598
33880,-0.2554918,-1.538299,-4.561867,-0.2839705,-0.4444854,-1.461518,9.308989,-0.5028003,-1.345589,18.5,-1,0.75,-5.521018,-84.18577,170.0551,-0.7356103,-0.6639389,0.09363919,0.09640752
33892,-0.2593281,-1.544126,-4.581345,-0.288838,-0.4386721,-1.46648,9.313777,-0.1388687,-1.393475,13.875,0,-1.5,-6.170475,-84.15672,170.6362,-0.7357365,-0.6636809,0.09443551,0.09644406
33904,-0.2631824,-1.549901,-4.600643,-0.2937751,-0.440208,-1.470873,9.356874,0.4070288,-1.259395,12.125,0.5,-2.125,-5.831833,-84.14111,170.2027,-0.7357405,-0.6635089,0.09476729,0.09726784
33915,-0.2670715,-1.555698,-4.619713,-0.300781,-0.4483059,-1.474902,9.366451,0.9625034,-1.283338,14.125,0.875,-1.5,-4.761233,-84.1133,169.06,-0.7358116,-0.6632993,0.09449976,0.09841339
33928,-0.2716448,-1.562384,-4.641259,-0.3140962,-0.4591852,-1.479812,9.299411,1.201932,-1.61375,20.25,1.75,0.125,-3.522406,-84.03162,167.8269,-0.7362422,-0.6628265,0.09364212,0.09919496
33939,-0.2757291,-1.568245,-4.659841,-0.3262514,-0.4681818,-1.484282,9.270679,1.201932,-1.68079,24.125,3.125,2.625,-2.786052,-83.97461,167.1428,-0.7365804,-0.6625398,0.09283457,0.09935859
33950,-0.2800615,-1.574394,-4.679074,-0.3353195,-0.4759528,-1.488631,9.318565,1.019966,-1.455727,26.625,4.625,5,-2.480492,-83.98334,166.9234,-0.736586,-0.6626839,0.09214447,0.09899761
33962,-0.2844979,-1.580654,-4.698501,-0.3408713,-0.4809355,-1.492647,9.376028,0.7278633,-1.245029,27.375,5.375,6.75,-2.72492,-84.04994,167.2654,-0.7362971,-0.6631775,0.09177674,0.0981801
33973,-0.2889695,-1.586948,-4.71801,-0.3430693,-0.4828995,-1.496786,9.395183,0.4166059,-1.043909,23.875,5.625,8.375,-3.563876,-84.1636,168.1575,-0.735722,-0.6639119,0.09206037,0.09725734
33985,-0.2934284,-1.593229,-4.737479,-0.3437649,-0.48427,-1.500898,9.409549,0.3208345,-0.9289834,20,5.125,9.375,-4.661417,-84.28938,169.2574,-0.7350323,-0.6646829,0.09278131,0.09651817
33996,-0.2979152,-1.599564,-4.757021,-0.3454518,-0.4877315,-1.504651,9.433492,0.4788574,-0.9481377,19.25,4.25,9.625,-5.588361,-84.39241,170.1754,-0.7344463,-0.6653163,0.09343018,0.09598698
34008,-0.3024509,-1.605986,-4.776606,-0.3492791,-0.4945571,-1.508128,9.443069,0.7613833,-1.029544,21.25,3.625,10,-6.15975,-84.46502,170.7614,-0.7340445,-0.6657856,0.09370474,0.09553917
34020,-0.3075375,-1.613166,-4.798193,-0.3563049,-0.5029641,-1.512192,9.409549,0.8619434,-1.197144,27.125,3.125,10.625,-6.758184,-84.50474,171.4587,-0.7339008,-0.6661155,0.09349192,0.09454677
34032,-0.3121421,-1.619627,-4.817513,-0.3613476,-0.5069629,-1.5161,9.395183,0.5506861,-1.173201,34.25,2.5,10.5,-7.764045,-84.54005,172.6458,-0.7338454,-0.6664873,0.09303391,0.09279298
34043,-0.3168522,-1.626196,-4.837267,-0.3624493,-0.5055285,-1.520158,9.414337,0.02873145,-0.9768692,37.875,2,9.375,-9.453435,-84.60421,174.5713,-0.7336376,-0.6671121,0.09264211,0.09030461
34054,-0.3215601,-1.632731,-4.857268,-0.358839,-0.4980734,-1.524461,9.423914,-0.5458975,-0.7326519,35.25,1,7.125,-11.79347,-84.69135,177.1203,-0.7332131,-0.6679177,0.09274358,0.08765414
34066,-0.3261004,-1.638974,-4.876872,-0.3540716,-0.4868709,-1.528792,9.414337,-0.9050406,-0.7039204,29.125,0,4,-14.25345,-84.75652,179.7102,-0.7327897,-0.6685814,0.093339,0.08547588
34077,-0.3306805,-1.64517,-4.896891,-0.3508557,-0.4746835,-1.533505,9.376028,-0.9625034,-0.8332119,20.25,-1,0.25,-16.29934,-84.77888,-178.2253,-0.7325133,-0.6688992,0.09435296,0.08423534
34089,-0.3352581,-1.651278,-4.917013,-0.3499749,-0.4669516,-1.538377,9.356874,-0.5985718,-0.9194063,13.125,-1.5,-2.875,-17.22211,-84.7793,-177.3781,-0.7323701,-0.6689247,0.09530508,0.08420696
34100,-0.3400349,-1.657606,-4.93796,-0.3518557,-0.466129,-1.542989,9.385606,-0.02394287,-0.9912349,14,-2.5,-5.875,-16.66198,-84.76004,-178.0073,-0.7324832,-0.6686923,0.09541651,0.08493907
34112,-0.3447059,-1.663858,-4.958431,-0.3529011,-0.4723245,-1.546572,9.4718,0.4980117,-0.8092691,21.75,-4.25,-8,-14.92567,-84.75013,-179.7107,-0.7327093,-0.6685123,0.09426361,0.08568937
34124,-0.3493485,-1.670171,-4.978832,-0.3526751,-0.4795405,-1.549803,9.50532,0.5794175,-0.7039204,29.25,-6.375,-9,-12.97376,-84.72474,178.4689,-0.7330852,-0.668328,0.09241492,0.08592694
34135,-0.3539098,-1.676416,-4.998941,-0.3523541,-0.4824347,-1.553381,9.467011,0.2825259,-0.7853262,31.25,-8.25,-9.25,-11.59875,-84.66003,177.2516,-0.7336514,-0.667969,0.09074611,0.0856631
34147,-0.3584837,-1.682671,-5.019165,0,0,0,9.428702,0.02394287,-0.8810977,27.375,-9.25,-9.25,-10.72752,-84.56841,176.4901,-0.7343055,-0.6674306,0.08963878,0.085421
34158,-0.3585126,-1.682632,-5.019224,0,0,0,9.366451,-0.08140577,-1.110949,22.125,-9.25,-10,-9.997426,-84.44117,175.8033,-0.7351087,-0.6666187,0.08899548,0.08552548
34170,-0.3585837,-1.682588,-5.019293,0,0,0,9.289834,-0.03352002,-1.369532,18.375,-8.625,-10.75,-9.163728,-84.27902,174.9644,-0.7360754,-0.6655463,0.0885575,0.08601563
34181,-0.3586878,-1.682586,-5.01936,0,0,0,9.256314,0.2825259,-1.556287,16.625,-7.125,-11.5,-7.863328,-84.10895,173.6351,-0.737069,-0.6644032,0.08793191,0.08698169
34193,-0.3588461,-1.68269,-5.019436,0,0,0,9.289834,0.8380005,-1.565864,18.625,-5.875,-11,-5.639433,-83.92113,171.4024,-0.7381498,-0.6631889,0.08653506,0.08847059
34205,-0.358938,-1.682811,-5.019485,0,0,0,9.366451,1.087006,-1.355167,23,-4.75,-9.5,-3.625131,-83.79991,169.4332,-0.7388337,-0.6624943,0.08490693,0.08953702
34216,-0.3589846,-1.682947,-5.01953,0,0,0,9.414337,1.130104,-1.067852,25.875,-4.25,-7.25,-1.822834,-83.72868,167.7111,-0.7392191,-0.6621832,0.08320101,0.0902566
34228,-0.3590519,-1.683051,-5.019582,0,0,0,9.366451,0.9625034,-1.235452,28.75,-4.125,-5.125,-0.586255,-83.6398,166.5943,-0.7397427,-0.6617803,0.08161318,0.09037142
34239,-0.3591211,-1.683092,-5.01964,0,0,0,9.342508,0.6033604,-1.340801,30.25,-4.25,-3.625,-0.09568375,-83.55007,166.2472,-0.7403349,-0.6613408,0.08038208,0.08984151
