timestamp,posX,posY,posZ,velX,velY,velZ,accX,accY,accZ,gyroX,gyroY,gyroZ,yaw,pitch,roll,quatX,quatY,quatZ,quatW
13949,0,0,0,0,0,0,9.347297,-0.01436572,-0.6512461,25.625,3.125,1,0,0,0,0,0,0,1
13964,0,0,0,0,0,0,9.332932,-0.2777373,-0.4980117,27.875,3.875,-0.5,0,0,0,0,0,0,1
13980,0,0,0,0,0,0,9.318565,0.2681602,-0.7134976,28.5,4.625,-1.75,0,0,0,0,0,0,1
13993,0,0,0,0,0,0,9.347297,0.7278633,-0.7230747,38,5.375,-0.875,0,0,0,0,0,0,1
14005,0,0,0,0,0,0,9.380817,0.3016802,-0.2394287,27.5,6.625,1.625,0,0,0,0,0,0,1
14018,0,0,0,0,0,0,9.419126,-0.1053486,0.191543,22.75,6.125,1.375,0,0,0,0,0,0,1
14030,0,0,0,0,0,0,9.376028,-0.1723887,-0.2106973,25.25,4.5,-0.25,0,0,0,0,0,0,1
14042,0,0,0,0,0,0,9.332932,0.07182861,-0.742229,25.5,4.75,-0.75,0,0,0,0,0,0,1
14055,0,0,0,0,0,0,9.33772,0.2873144,-0.6608232,24.5,5.875,-0.375,0,0,0,0,0,0,1
14068,0,0,0,0,0,0,9.352086,0.3304116,-0.4309717,25.125,6.875,0.375,0,0,0,0,0,0,1
14080,0,0,0,0,0,0,9.347297,0.1819658,-0.450126,25.5,7.25,0.625,0,0,0,0,0,0,1
14093,0,0,0,0,0,0,9.352086,0.03352002,-0.4070288,24.875,7.625,0.625,0,0,0,0,0,0,1
14105,0,0,0,0,0,0,9.356874,0.07661719,-0.3064688,24.375,7.875,0.375,0,0,0,0,0,0,1
14116,0,0,0,0,0,0,9.361663,0.2202744,-0.3256231,24.75,7.875,0.375,0,0,0,0,0,0,1
14129,0,0,0,0,0,0,9.366451,0.3016802,-0.4309717,25.5,8,0.75,0,0,0,0,0,0,1
14141,0,0,0,0,0,0,9.366451,0.2825259,-0.3830859,26,8.125,1.5,0,0,0,0,0,0,1
14153,0,0,0,0,0,0,9.380817,0.1771773,-0.2011201,26.125,8.125,2.25,0,0,0,0,0,0,1
14166,0,0,0,0,0,0,9.40476,0.04788574,0,25.75,7.25,2.125,0,0,0,0,0,0,1
14178,0,0,0,0,0,0,9.399971,-0.09098291,0.04788574,25.125,5.75,1.5,0,0,0,0,0,0,1
14191,0,0,0,0,0,0,9.390394,-0.1005601,-0.08140577,24.375,4.625,0.25,0,0,0,0,0,0,1
14203,0,0,0,0,0,0,9.395183,0.1149258,-0.1053486,23.75,3.5,-0.375,0,0,0,0,0,0,1
14216,0,0,0,0,0,0,9.399971,0.2777373,-0.1340801,24.375,3,0.125,0,0,0,0,0,0,1
14228,0,0,0,0,0,0,9.385606,0.3064688,-0.2490059,25.625,2.625,0.875,0,0,0,0,0,0,1
14241,0,0,0,0,0,0,9.380817,0.2633716,-0.258583,26.125,2.5,1.625,0,0,0,0,0,0,1
14253,0,0,0,0,0,0,9.390394,0.1532344,-0.1819658,26,2,2,0,0,0,0,0,0,1
14265,0,0,0,0,0,0,9.390394,0.07182861,-0.1340801,25.875,1.5,2.125,0,0,0,0,0,0,1
14279,0,0,0,0,0,0,9.399971,0.09098291,-0.07661719,25.625,1.125,2,0,0,0,0,0,0,1
14291,0,0,0,0,0,0,9.395183,0.1245029,-0.1388687,25.375,0.5,2,0,0,0,0,0,0,1
14303,0,0,0,0,0,0,9.390394,0.1197144,-0.1819658,24.25,-0.25,2.25,0,0,0,0,0,0,1
14315,0,0,0,0,0,0,9.385606,0.06704004,-0.158023,23.75,-0.625,2.375,0,0,0,0,0,0,1
14328,0,0,0,0,0,0,9.366451,0.02394287,-0.2394287,23.875,-0.625,2.125,0,0,0,0,0,0,1
14340,0,0,0,0,0,0,9.356874,-0.01436572,-0.3304116,24.125,-0.625,1.875,0,0,0,0,0,0,1
14352,0,0,0,0,0,0,9.37124,0.07661719,-0.2442173,24,-1,1.625,0,0,0,0,0,0,1
14366,0,0,0,0,0,0,9.399971,0.2202744,-0.03830859,24.25,-1.25,2,0,0,0,0,0,0,1
14379,0,0,0,0,0,0,9.380817,0.2442173,-0.1292915,25,-1.75,2.5,0,0,0,0,0,0,1
14391,0,0,0,0,0,0,9.356874,0.1963315,-0.3495659,24.75,-2.25,3.375,0,0,0,0,0,0,1
14403,0,0,0,0,0,0,9.352086,0.1388687,-0.4644917,24.75,-1.75,3.875,0,0,0,0,0,0,1
14416,0,0,0,0,0,0,9.352086,0.08619434,-0.4549146,25.125,-1,4.125,0,0,0,0,0,0,1
14428,0,0,0,0,0,0,9.366451,0.08140577,-0.3112573,25.5,-0.5,4.5,0,0,0,0,0,0,1
14440,0,0,0,0,0,0,9.380817,0.08619434,-0.2106973,26.25,-0.5,4.5,0,0,0,0,0,0,1
14454,0,0,0,0,0,0,9.380817,0.01436572,-0.1771773,26.75,-1.125,4.375,0,0,0,0,0,0,1
14467,0,0,0,0,0,0,9.366451,-0.02394287,-0.2154858,26.5,-1.375,4.125,0,0,0,0,0,0,1
14479,0,0,0,0,0,0,9.347297,-0.06225147,-0.3208345,25.5,-1.125,3.75,0,0,0,0,0,0,1
14492,0,0,0,0,0,0,9.356874,-0.1149258,-0.2968916,24.625,-0.875,3.25,0,0,0,0,0,0,1
14504,0,0,0,0,0,0,9.361663,-0.1197144,-0.292103,24.5,-0.75,2.75,0,0,0,0,0,0,1
14516,0,0,0,0,0,0,9.385606,-0.04309717,-0.1484458,24.625,-1.375,2.25,0,0,0,0,0,0,1
14529,0,0,0,0,0,0,9.385606,0.009577149,-0.1436572,24.75,-1.875,2,0,0,0,0,0,0,1
14542,0,0,0,0,0,0,9.352086,-0.004788574,-0.3591431,24.375,-2,2.25,0,0,0,0,0,0,1
14555,0,0,0,0,0,0,9.342508,-0.04788574,-0.3878745,24.5,-1.625,1.875,0,0,0,0,0,0,1
14567,0,0,0,0,0,0,9.356874,-0.09577148,-0.3352002,24.625,-1.125,1.375,0,0,0,0,0,0,1
14580,0,0,0,0,0,0,9.342508,-0.08619434,-0.3735088,24.75,-1,1.125,0,0,0,0,0,0,1
14592,0,0,0,0,0,0,9.347297,-0.05267432,-0.3208345,24.875,-0.75,0.5,0,0,0,0,0,0,1
14604,0,0,0,0,0,0,9.376028,-0.05267432,-0.1532344,24.375,-0.75,0.25,0,0,0,0,0,0,1
14617,0,0,0,0,0,0,9.399971,-0.02394287,-0.04788574,23.625,-1.625,0.25,0,0,0,0,0,0,1
14630,0,0,0,0,0,0,9.37124,-0.009577149,-0.2442173,23.375,-2.125,0.25,0,0,0,0,0,0,1
14643,0,0,0,0,0,0,9.347297,-0.009577149,-0.450126,23.75,-2,0.125,0,0,0,0,0,0,1
14655,0,0,0,0,0,0,9.352086,0.0191543,-0.4357603,24.375,-1.375,0,0,0,0,0,0,0,1
14668,0,0,0,0,0,0,9.342508,0.01436572,-0.4213945,25,-0.625,0.125,0,0,0,0,0,0,1
14680,0,0,0,0,0,0,9.33772,-0.0191543,-0.4166059,25.375,-0.125,0.125,0,0,0,0,0,0,1
14692,0,0,0,0,0,0,9.352086,-0.1149258,-0.2537944,25.25,-0.125,-0.25,0,0,0,0,0,0,1
14705,0,0,0,0,0,0,9.356874,-0.1436572,-0.2298516,24.875,-0.125,-1,0,0,0,0,0,0,1
14718,0,0,0,0,0,0,9.347297,-0.03352002,-0.3687202,24,-0.125,-1.5,0,0,0,0,0,0,1
14731,0,0,0,0,0,0,9.361663,0.09098291,-0.3830859,24.125,0.125,-1.25,0,0,0,0,0,0,1
14744,0,0,0,0,0,0,9.342508,0.09577148,-0.517166,24.625,1.25,-0.75,0,0,0,0,0,0,1
14756,0,0,0,0,0,0,9.313777,0.05746289,-0.6943433,24.5,2.75,-0.5,0,0,0,0,0,0,1
14768,0,0,0,0,0,0,9.299411,-0.06704004,-0.742229,25,4.625,-0.5,0,0,0,0,0,0,1
14781,0,0,0,0,0,0,9.3042,-0.225063,-0.5698403,25.5,6.25,-1.125,0,0,0,0,0,0,1
14793,0,0,0,0,0,0,9.313777,-0.4022402,-0.3495659,25.375,7,-2.625,0,0,0,0,0,0,1
14805,0,0,0,0,0,0,9.323354,-0.5363203,-0.2202744,24.875,7.625,-5,0,0,0,0,0,0,1
14817,0,0,0,0,0,0,9.347297,-0.4405488,-0.158023,23.875,7.25,-7.375,0,0,0,0,0,0,1
14830,0,0,0,0,0,0,9.376028,-0.1340801,-0.1340801,23.375,6.75,-8.5,0,0,0,0,0,0,1
14842,0,0,0,0,0,0,9.385606,0.1676001,-0.2202744,23.625,6.25,-8.5,0,0,0,0,0,0,1
14855,0,0,0,0,0,0,9.40476,0.3447773,-0.225063,23.5,5.875,-7.375,0,0,0,0,0,0,1
14868,0,0,0,0,0,0,9.419126,0.2777373,-0.06704004,23.75,5.375,-6.125,0,0,0,0,0,0,1
14880,0,0,0,0,0,0,9.40476,0.1245029,-0.04309717,24.125,4.875,-5.375,0,0,0,0,0,0,1
14893,0,0,0,0,0,0,9.395183,0.06225147,-0.1197144,23.75,4.125,-5.25,0,0,0,0,0,0,1
14905,0,0,0,0,0,0,9.40476,0.1723887,-0.009577149,23.5,3.25,-4.875,0,0,0,0,0,0,1
14918,0,0,0,0,0,0,9.414337,0.3591431,0.07182861,23.5,2.125,-4,0,0,0,0,0,0,1
14930,0,0,0,0,0,0,9.423914,0.5219546,0.03352002,23.875,0.875,-2.375,0,0,0,0,0,0,1
14942,0,0,0,0,0,0,9.428702,0.5794175,-0.09098291,25.25,-0.125,-0.125,-2.775759E-05,-88.23763,166.6506,0.7130332,0.6914287,0.08091541,0.08344371
14967,0,0,0,0,0,0,9.399971,0.3735088,-0.1436572,26.625,-0.875,4,-0.4005584,-88.19832,167.0925,0.7133095,0.6912042,0.08071413,0.08313641
14980,0,0,0,0,0,0,9.399971,0.2394287,-0.08619434,27.125,-1.5,5.125,-1.862514,-88.18825,168.5841,0.713419,0.6911349,0.08081273,0.08267487
14993,0,0,0,0,0,0,9.390394,0.07661719,-0.1436572,26.75,-1.75,5.625,-4.285051,-88.17083,171.029,0.7135693,0.6910132,0.0811448,0.08206771
15005,1.48395E-05,7.187015E-06,-8.466921E-05,0.001045993,0.0005065916,-0.005968084,9.37124,-0.01436572,-0.2346401,25.75,-1.75,5.625,-7.18769,-88.13649,173.9407,0.7137938,0.690795,0.08166343,0.08143697
15017,5.271563E-05,1.641294E-05,-0.0002508443,0.002706598,0.0006592771,-0.01187474,9.37124,-0.01436572,-0.191543,25.25,-1.875,5.625,-9.854091,-88.10483,176.609,0.7139695,0.6906155,0.08219729,0.08087871
15030,0.0001395268,6.942597E-06,-0.0004906709,0.006289757,-0.0006861571,-0.01737622,9.399971,0.04788574,-0.03352002,25.5,-2.5,5.375,-11.89678,-88.08828,178.6569,0.7140411,0.690548,0.08259088,0.08042107
15041,0.0002828911,-2.606704E-05,-0.0007854695,0.01094969,-0.002521167,-0.02251574,9.409549,0.05746289,0.06704004,25.5,-3.625,5.375,-13.70329,-88.07268,-179.5318,0.7141002,0.6904927,0.08294294,0.08000844
15053,0.000477819,-7.602229E-05,-0.001147459,0.01499445,-0.003842711,-0.02784538,9.390394,0.0191543,0.009577149,25.625,-4.375,5.625,-15.67032,-88.03616,-177.5582,0.7142652,0.6903295,0.08334243,0.07952737
15064,0.0007009935,-0.0001344037,-0.001581059,0.01716726,-0.004490879,-0.03335379,9.37124,-0.009577149,-0.1532344,25.625,-5.125,5.5,-17.5224,-87.9624,-175.6992,0.7146381,0.6899504,0.08377253,0.07901324
15076,0.0009636246,-0.0001899904,-0.002130917,0.01877278,-0.003973312,-0.03930364,9.366451,-0.09577148,-0.2394287,24.875,-5.625,5.25,-19.56161,-87.86091,-173.6631,0.7151442,0.6894173,0.08436746,0.07845193
15089,0.001263767,-0.0002326858,-0.002771117,0.02130782,-0.003031056,-0.04544944,9.356874,-0.1532344,-0.1963315,24.25,-5.625,4.625,-21.43138,-87.76604,-171.8047,0.7155877,0.6889354,0.08500259,0.07795413
15101,0.001599706,-0.0002630162,-0.003491427,0.02401283,-0.002168002,-0.05148748,9.361663,-0.1628115,-0.1963315,23.75,-5.875,3.875,-22.86124,-87.67039,-170.3928,0.7160375,0.6884365,0.08560605,0.07756933
15113,0.001963343,-0.0002825623,-0.004296861,0.02595926,-0.001395357,-0.05749813,9.361663,-0.1532344,-0.2633716,23.875,-5.875,3.125,-23.81313,-87.56747,-169.4573,0.7165536,0.6878713,0.08611848,0.07725195
15125,0.002317601,-0.0002972229,-0.00511193,0.02744696,-0.001135859,-0.06314941,9.352086,-0.1197144,-0.292103,24.125,-5.625,2.5,-24.29733,-87.47571,-168.9847,0.7170349,0.687349,0.0864795,0.07703047
15137,0.002720153,-0.0003125292,-0.006100616,0.02828894,-0.001075642,-0.06947901,9.342508,-0.09577148,-0.3591431,24.75,-5.375,1.875,-24.46585,-87.3714,-168.8199,0.7176158,0.6867338,0.08674138,0.07681262
15150,0.003114583,-0.0003221771,-0.007153779,0.02839264,-0.0006944921,-0.07581072,9.328143,-0.1101372,-0.4309717,24.75,-5,1.5,-24.52856,-87.2662,-168.761,0.7182108,0.6861033,0.08697796,0.07661758
15162,0.003510588,-0.0003075988,-0.00828826,0.02869388,0.001056321,-0.08220279,9.318565,-0.2154858,-0.4549146,24.125,-4.375,1,-24.82008,-87.16662,-168.4811,0.7187444,0.6855234,0.08731949,0.0764166
15174,0.00394106,-0.0002480787,-0.009553238,0.03020224,0.004175973,-0.08875174,9.323354,-0.3304116,-0.4070288,23.625,-3.625,-0.125,-25.24797,-87.08463,-168.0717,0.7191582,0.6850581,0.0877132,0.07624511
15186,0.004357812,-0.0001610295,-0.01077028,0.03238673,0.00676478,-0.09457863,9.332932,-0.3304116,-0.3495659,23.625,-3.125,-1.5,-25.33402,-87.03165,-168.0018,0.7194412,0.6847354,0.08793897,0.07621458
15197,0.004816505,-4.531907E-05,-0.01208565,0.03507894,0.008849073,-0.1005942,9.328143,-0.2968916,-0.3112573,23.75,-2.875,-2.75,-25.05031,-86.99261,-168.2999,0.7196824,0.6844611,0.08801403,0.07631439
15209,0.005306425,8.857519E-05,-0.01345836,0.0380048,0.01038665,-0.1064866,9.332932,-0.258583,-0.2873144,23.625,-2.75,-3.75,-24.45479,-86.9641,-168.9109,0.7198945,0.6842174,0.0879768,0.07654145
15220,0.005839619,0.0002312745,-0.01491968,0.04094254,0.01095748,-0.1122101,9.352086,-0.1771773,-0.2777373,23.125,-2.875,-4.5,-23.45994,-86.93958,-169.928,0.7201154,0.6839564,0.08784208,0.07694846
15232,0.006405754,0.0003518483,-0.01645419,0.04342857,0.009249298,-0.1177133,9.37124,0.01436572,-0.2777373,22.625,-3,-4.875,-21.85098,-86.91891,-171.5664,0.720361,0.6836618,0.08754118,0.07760989
15243,0.006996597,0.0004179686,-0.0180562,0.04540058,0.0050807,-0.1230988,9.380817,0.225063,-0.2777373,22.75,-3,-4.375,-19.81534,-86.89973,-173.631,0.7206187,0.683356,0.08708502,0.07841906
15254,0.007587966,0.0004133572,-0.01971313,0.04586032,-0.0003576083,-0.1284942,9.37124,0.3687202,-0.3735088,23,-2.75,-3.125,-17.74308,-86.866,-175.7297,0.7209432,0.6829818,0.08660549,0.07922193
15266,0.008175354,0.0003410798,-0.02147583,0.04467855,-0.005497636,-0.1340762,9.356874,0.3830859,-0.5123774,24,-2.5,-1.625,-16.03022,-86.80899,-177.4572,0.721374,0.6825107,0.08617897,0.07982427
15277,0.008745494,0.0002151645,-0.02327708,0.04413873,-0.009748034,-0.1394483,9.366451,0.3208345,-0.4884346,25.125,-1.875,0,-14.99906,-86.76275,-178.4884,0.7217016,0.6821672,0.0858691,0.08013313
15289,0.009342721,4.339415E-05,-0.02519268,0.04515211,-0.01298634,-0.1448248,9.380817,0.2154858,-0.3974517,25.5,-1.125,1,-14.53507,-86.73991,-178.9473,0.7218626,0.6820055,0.08569779,0.08024238
15300,0.009933133,-0.0001416457,-0.02710195,0.04645618,-0.01455975,-0.1502294,9.361663,0.09098291,-0.4022402,25.25,-0.75,1.75,-14.61069,-86.72201,-178.8698,0.7219671,0.6818975,0.08572768,0.08018864
15312,0.0105479,-0.000336043,-0.02913645,0.04716615,-0.01491463,-0.1560917,9.332932,0.004788574,-0.4740689,25.125,-0.375,2,-14.97738,-86.69672,-178.5025,0.7220985,0.681758,0.08587405,0.080034
15323,0.01116624,-0.000536319,-0.03126186,0.0471513,-0.01527192,-0.1620724,9.323354,0.01436572,-0.5315318,24.625,0.375,2.125,-15.33341,-86.67263,-178.1527,0.7222195,0.6816197,0.08605736,0.07992421
15336,0.01185948,-0.0007741348,-0.03374539,0.04705713,-0.0161428,-0.1685808,9.33772,0.04309717,-0.5315318,24.375,1.5,2.375,-15.70269,-86.66257,-177.7942,0.7222504,0.6815695,0.08626175,0.07985181
15348,0.01249377,-0.001005558,-0.03603883,0.04820181,-0.01758671,-0.1742868,9.352086,0.06704004,-0.4261831,24.25,2.375,2.875,-16.09031,-86.68241,-177.4182,0.7221036,0.6817065,0.08644903,0.07980765
15359,0.01316924,-0.001266919,-0.03839896,0.05144052,-0.0199041,-0.1797367,9.380817,0.09098291,-0.2490059,24.75,2.25,3.25,-16.51543,-86.72834,-176.9983,0.721804,0.6820148,0.08658298,0.07973984
15371,0.01389371,-0.001560177,-0.04078584,0.05615187,-0.02272967,-0.1850009,9.395183,0.1005601,-0.1149258,25.5,1.625,3.625,-17.00702,-86.78465,-176.5022,0.7214432,0.6824014,0.0866664,0.07960478
15382,0.01467296,-0.001880908,-0.04323661,0.06052475,-0.02491113,-0.1903513,9.385606,0.05267432,-0.1436572,25.5,1,3.875,-17.6791,-86.82639,-175.8257,0.7211596,0.6827059,0.08682037,0.07939677
15394,0.01550922,-0.002215078,-0.04582566,0.06331922,-0.02530246,-0.1960363,9.361663,-0.06225147,-0.2968916,25.375,0.875,4,-18.6922,-86.83937,-174.8092,0.7210178,0.682857,0.08712297,0.07905234
15405,0.01634883,-0.002533004,-0.04843109,0.06502032,-0.02462061,-0.2017681,9.342508,-0.1340801,-0.3926631,25.5,0.875,4,-19.83891,-86.83405,-173.6571,0.7209664,0.6829143,0.08747964,0.07863102
15416,0.01721521,-0.002838866,-0.05112783,0.06669118,-0.0235442,-0.2075851,9.33772,-0.1723887,-0.4022402,25.25,1,3.375,-20.92274,-86.82825,-172.5709,0.720915,0.6829672,0.08783315,0.07824787
15428,0.01810077,-0.00312544,-0.05387714,0.06870625,-0.02223396,-0.2133068,9.342508,-0.2059087,-0.3782974,24.625,1.375,2.625,-21.91043,-86.83083,-171.5886,0.7208117,0.6830636,0.0881871,0.07795883
15440,0.01904801,-0.003410379,-0.0568055,0.07090116,-0.02132778,-0.2191884,9.347297,-0.1819658,-0.3591431,24.125,2.125,2.125,-22.75819,-86.84712,-170.753,0.720632,0.6832312,0.08851083,0.07778449
15451,0.01997423,-0.003668765,-0.05967086,0.0726793,-0.02027514,-0.2248401,9.342508,-0.1963315,-0.3830859,23.5,2.375,1.625,-23.47735,-86.86176,-170.0532,0.7204661,0.683374,0.0888349,0.07769822
15462,0.02095762,-0.003911231,-0.06267502,0.07552322,-0.01862109,-0.2307165,9.33772,-0.2633716,-0.3112573,23.5,2.375,0.625,-24.19745,-86.8875,-169.3522,0.7202345,0.6835865,0.08913448,0.07763379
15474,0.02199509,-0.004132184,-0.0657874,0.07887106,-0.01679743,-0.2366106,9.342508,-0.2873144,-0.2729487,24,2.375,-0.25,-24.80075,-86.91986,-168.7612,0.7199797,0.6838341,0.0893393,0.07758109
15485,0.02302479,-0.004324647,-0.0689071,0.08002621,-0.01495787,-0.2424577,9.328143,-0.2537944,-0.4309717,24.375,2.75,-1.25,-24.97906,-86.9342,-168.59,0.719874,0.683934,0.08941092,0.07759825
15497,0.02406405,-0.004499539,-0.07211699,0.08041391,-0.01353235,-0.2483668,9.323354,-0.2059087,-0.4788574,24.625,3.25,-2.125,-24.80342,-86.95091,-168.7696,0.7197939,0.6840137,0.08934804,0.07771067
15509,0.02522781,-0.004688515,-0.07571378,0.08235451,-0.01337316,-0.2545311,9.352086,-0.1292915,-0.3447773,24.875,3.875,-2.75,-24.31636,-87.00468,-169.2576,0.7195352,0.6842885,0.08910228,0.07796917
15520,0.02631904,-0.004868907,-0.07904866,0.08505987,-0.01406124,-0.2599486,9.37124,-0.07661719,-0.2490059,24.75,4.125,-3,-23.71461,-87.0719,-169.8618,0.719205,0.6846364,0.08881217,0.07829204
15532,0.02745011,-0.005064918,-0.08251125,0.08667873,-0.01502113,-0.2653527,9.376028,-0.02873145,-0.3208345,24.875,4.25,-3,-22.90785,-87.12962,-170.6696,0.7189425,0.6849152,0.08847702,0.07864323
15544,0.02858813,-0.005286061,-0.08612045,0.0854306,-0.0166011,-0.2709409,9.361663,0.07661719,-0.517166,25.25,4.875,-2.75,-21.72669,-87.16537,-171.8477,0.7188362,0.685037,0.0880504,0.07903216
15556,0.02982007,-0.00554564,-0.09014387,0.08485602,-0.01787984,-0.2771334,9.356874,0.04309717,-0.4644917,25.375,5.25,-2.25,-20.74694,-87.21456,-172.8221,0.7186266,0.6852691,0.08765638,0.07936265
15568,0.03100519,-0.005811583,-0.09386334,0.08995926,-0.02018695,-0.2823339,9.409549,0.03352002,-0.01436572,25.625,4.625,-1.625,-20.21347,-87.32014,-173.3473,0.7180521,0.6858865,0.08730204,0.07961947
15580,0.03229541,-0.006141351,-0.09765875,0.09766991,-0.02496345,-0.2873137,9.43828,0.1771773,0.2394287,25.625,3.375,-1,-19.37907,-87.4484,-174.1739,0.7173569,0.6866289,0.08685068,0.07998072
15591,0.03360978,-0.006514081,-0.1014121,0.1024128,-0.02904241,-0.2924565,9.40476,0.191543,0.03352002,25.75,2.125,-0.125,-18.6174,-87.5207,-174.9268,0.7169807,0.6870372,0.08650333,0.08022309
15602,0.03496863,-0.006886902,-0.1052454,0.1056318,-0.02898178,-0.2979847,9.366451,-0.09577148,-0.1532344,27.25,0.75,0.25,-18.90631,-87.53987,-174.609,0.7168724,0.6871926,0.08638085,0.0799917
15614,0.03642894,-0.007264365,-0.1093224,0.1088162,-0.02812691,-0.3037979,9.361663,-0.1532344,-0.1771773,27.75,0.5,0.125,-19.3678,-87.55128,-174.1105,0.7168057,0.6873162,0.0862626,0.07965543
15625,0.03783923,-0.007631771,-0.1132397,0.1112831,-0.02899124,-0.3091078,9.376028,-0.01436572,-0.1867544,25.375,0.5,0.125,-19.2882,-87.56233,-174.1856,0.7167482,0.6873831,0.08620048,0.07966281
15637,0.03932605,-0.008007896,-0.1173363,0.1141691,-0.02888159,-0.3145645,9.376028,-0.09577148,-0.1771773,25.75,0.125,-0.25,-19.3887,-87.56908,-174.0751,0.7167085,0.6874387,0.08615766,0.0795846
15648,0.0408355,-0.008359896,-0.1214572,0.1172382,-0.02733979,-0.3200702,9.366451,-0.2106973,-0.1867544,26.5,-0.5,-0.625,-19.7727,-87.56482,-173.6712,0.7167253,0.6874496,0.086142,0.07935585
15660,0.04242414,-0.008701037,-0.1257497,0.1204977,-0.02587536,-0.3255874,9.376028,-0.2059087,-0.1771773,25.875,-0.75,-1.125,-19.97674,-87.55952,-173.4549,0.7167526,0.6874388,0.08612762,0.07921924
15671,0.04401552,-0.009034446,-0.1300255,0.1231907,-0.02580963,-0.3309932,9.376028,-0.09098291,-0.191543,25.375,-0.875,-1.75,-19.55022,-87.55359,-173.876,0.7168167,0.6873809,0.08599416,0.07928646
15683,0.04564733,-0.009388416,-0.1344108,0.1252158,-0.02716167,-0.3365005,9.37124,0.03352002,-0.2202744,25.25,-1.125,-1.875,-18.61736,-87.54202,-174.8055,0.7169412,0.6872583,0.08574837,0.07948999
15694,0.04729437,-0.009771862,-0.1388325,0.1273622,-0.02965095,-0.3419232,9.376028,0.1245029,-0.191543,24.875,-1.25,-1.25,-17.58393,-87.53328,-175.8408,0.7170448,0.6871497,0.08550157,0.07976008
15705,0.04899415,-0.01020836,-0.1433548,0.130451,-0.03349942,-0.3470654,9.40476,0.2154858,-0.1005601,24.625,-1.875,-0.375,-16.51626,-87.53059,-176.9142,0.7171075,0.6870779,0.08525962,0.08007204
15717,0.05074392,-0.01069204,-0.1479276,0.1347114,-0.03723799,-0.352051,9.419126,0.191543,-0.01436572,24.875,-2.5,0.625,-15.87719,-87.53208,-177.5559,0.7171251,0.687057,0.08510642,0.08025766
15729,0.05259147,-0.01121498,-0.1526684,0.1392279,-0.03940728,-0.3572591,9.409549,0.06704004,-0.03352002,25.5,-3.5,1.5,-15.95906,-87.51572,-177.4682,0.7172233,0.6869628,0.08510929,0.08018357
15741,0.05455884,-0.01175144,-0.1576314,0.1438664,-0.0392293,-0.3629226,9.385606,-0.1101372,-0.08140577,25.625,-4.75,1.625,-16.72148,-87.47268,-176.6976,0.7174512,0.6867353,0.08530641,0.07988378
15752,0.05649757,-0.01225633,-0.1624487,0.1482096,-0.03859705,-0.3682654,9.390394,-0.1484458,-0.1053486,24.875,-5.5,1.25,-17.4128,-87.41821,-176.0078,0.7177373,0.6864319,0.0855625,0.07964589
15764,0.05848134,-0.01276671,-0.167358,0.1510291,-0.03885667,-0.3737609,9.376028,-0.05746289,-0.2154858,24.625,-6,1,-17.63576,-87.34206,-175.79,0.7181726,0.6859679,0.08574205,0.07952707
15776,0.06072031,-0.01334545,-0.1729418,0.152414,-0.03939683,-0.3801051,9.356874,-0.01436572,-0.3447773,24.25,-5.875,1,-17.67071,-87.23849,-175.7667,0.7187763,0.6853176,0.08594052,0.07946588
15788,0.0627476,-0.01388117,-0.1780313,0.1536759,-0.04060946,-0.3858071,9.356874,0.03830859,-0.3447773,23.75,-5.625,1.375,-17.6335,-87.15154,-175.8211,0.7192798,0.684763,0.08613272,0.07948196
15800,0.06479527,-0.01444367,-0.183169,0.1559539,-0.04284079,-0.3912902,9.376028,0.09577148,-0.2633716,24.25,-5.625,1.875,-17.56746,-87.08047,-175.898,0.7196947,0.6843104,0.08625942,0.07948729
15811,0.06683794,-0.01502108,-0.1882743,0.1587402,-0.04487195,-0.3967471,9.37124,0.07182861,-0.2346401,24.375,-5.75,2.5,-17.73776,-87.01502,-175.7371,0.7200652,0.6839058,0.08644342,0.07941453
15822,0.0689301,-0.015627,-0.193455,0.1623974,-0.04703233,-0.4021298,9.380817,0.06225147,-0.1771773,24.125,-6.25,3,-18.05028,-86.95309,-175.4373,0.7204022,0.6835304,0.08669116,0.0793191
15834,0.07116991,-0.01626242,-0.1988561,0.1690546,-0.04796018,-0.4076628,9.390394,-0.09098291,0.004788574,25.25,-7.375,2.875,-18.79984,-86.90307,-174.6849,0.7206467,0.6832734,0.08697914,0.07899601
15846,0.0734505,-0.01686087,-0.2041707,0.1773119,-0.04652843,-0.413205,9.380817,-0.3112573,0.09098291,25.375,-8.75,2.375,-19.98696,-86.84831,-173.4924,0.7208837,0.6830261,0.08740925,0.07849686
15857,0.07582228,-0.01745819,-0.2096247,0.1821642,-0.04587661,-0.4188928,9.361663,-0.1963315,-0.1723887,24.375,-9.625,2,-20.59072,-86.7431,-172.8964,0.7214422,0.6824202,0.08780839,0.07818961
15868,0.0781533,-0.01804724,-0.2150879,0.1812056,-0.04579078,-0.4246881,9.323354,-0.05267432,-0.6225147,23.125,-9.375,1.875,-20.58472,-86.57738,-172.9271,0.722389,0.6813784,0.0881939,0.07809886
15880,0.08049557,-0.01862697,-0.2207436,0.1784446,-0.04416658,-0.4308767,9.289834,-0.1388687,-0.8092691,22.75,-8.125,1.5,-20.69569,-86.39745,-172.8457,0.7234015,0.6802552,0.08867298,0.07797536
15892,0.08296088,-0.01919611,-0.2268903,0.1756048,-0.04053986,-0.4378289,9.261103,-0.2777373,-0.8571548,22.625,-5.625,0.625,-21.03068,-86.23495,-172.5433,0.7242876,0.6792578,0.08923499,0.07780417
15905,0.0854234,-0.01969695,-0.2331977,0.1736733,-0.03532313,-0.4448422,9.261103,-0.4070288,-0.8380005,21,-3.125,-0.375,-21.53395,-86.11254,-172.0948,0.7249042,0.678511,0.08994611,0.07775813
15917,0.08781238,-0.02017306,-0.2393608,0.1747865,-0.03483354,-0.4509141,9.332932,-0.1340801,-0.5602632,23.375,-2.125,-1.25,-21.27347,-86.06617,-172.3766,0.7251844,0.6781803,0.09003681,0.07792585
15928,0.09016683,-0.02066345,-0.2453258,0.1801142,-0.03751479,-0.4563204,9.390394,0.02873145,-0.1867544,23.75,-2,-1.25,-20.77516,-86.08753,-172.891,0.7251026,0.6782476,0.08989619,0.07826424
15940,0.09261894,-0.02116862,-0.2514036,0.186331,-0.03838654,-0.4618375,9.385606,-0.1197144,-0.1532344,22.875,-2.25,-1.125,-20.65727,-86.10705,-173.0358,0.7249829,0.6783358,0.0899789,0.07851199
15952,0.09541771,-0.02173856,-0.2582751,0.1906254,-0.03881881,-0.4680214,9.37124,-0.1101372,-0.3399888,21.875,-2.875,-1.25,-20.40314,-86.08633,-173.3347,0.7250973,0.6781468,0.09016999,0.07886854
15964,0.09800474,-0.02229338,-0.2645178,0.1961956,-0.04207659,-0.4734365,9.395183,0.07661719,-0.1628115,21,-3.375,-0.875,-19.85574,-86.0926,-173.9348,0.7250762,0.6780925,0.09024927,0.07943638
15976,0.1006076,-0.02291625,-0.2708055,0.1981934,-0.04742811,-0.4787695,9.385606,0.3064688,-0.3926631,22.125,-3.5,0.375,-18.97663,-86.0621,-174.8537,0.7253063,0.6777906,0.09016215,0.08000908
15987,0.1031551,-0.02357181,-0.2770384,0.1978639,-0.05091716,-0.4841079,9.361663,0.2202744,-0.6081489,23.375,-3.625,1.875,-18.58084,-85.9942,-175.2728,0.7257215,0.6773121,0.09021837,0.0802338
15999,0.1057937,-0.02424871,-0.2834468,0.2016202,-0.05172338,-0.4896791,9.366451,-0.06225147,-0.3591431,24.5,-3.5,2.125,-18.93176,-85.96385,-174.9293,0.7258615,0.6771481,0.09044801,0.08009257
16010,0.1085161,-0.02492242,-0.2899052,0.2087853,-0.05166829,-0.4953116,9.376028,-0.1963315,-0.1197144,25.375,-4.125,1.875,-19.56267,-85.96246,-174.2933,0.7258148,0.6772017,0.09068768,0.07979047
16022,0.1112909,-0.02561573,-0.2963373,0.2159369,-0.05395404,-0.5005535,9.40476,-0.02394287,-0.07182861,24.75,-5.25,1.875,-19.77604,-85.95659,-174.0837,0.7258253,0.677183,0.09080879,0.07971631
16033,0.1141719,-0.02638143,-0.302929,0.2210091,-0.05873732,-0.5056578,9.414337,0.2011201,-0.1963315,24.125,-6.375,2.75,-19.59683,-85.91918,-174.2767,0.7260504,0.6769212,0.09086345,0.07982772
16044,0.1170417,-0.02718367,-0.3094939,0.2233073,-0.06242662,-0.5108466,9.385606,0.1723887,-0.4309717,23.125,-6.75,4,-19.65395,-85.83962,-174.2465,0.7264867,0.6764097,0.09115273,0.07986395
16056,0.119989,-0.02804651,-0.3162794,0.2242518,-0.06565018,-0.5162842,9.366451,0.1532344,-0.5602632,23.25,-6.875,5,-19.89588,-85.73639,-174.0309,0.7270415,0.6757689,0.09155384,0.07978025
16067,0.1229149,-0.02894307,-0.3230341,0.2259598,-0.06923784,-0.5216367,9.37124,0.1628115,-0.5075889,22.625,-6.25,6.375,-20.3556,-85.65179,-173.6061,0.727457,0.6752623,0.09208326,0.07967304
16079,0.1258964,-0.02989269,-0.3299262,0.2280252,-0.07262835,-0.5271161,9.366451,0.1292915,-0.4980117,23.25,-5.875,7.5,-21.0596,-85.57238,-172.9296,0.7278165,0.6748244,0.0926822,0.07940591
16090,0.1288904,-0.0308721,-0.3368052,0.2317176,-0.07580046,-0.5323935,9.385606,0.07182861,-0.3878745,25.625,-6.25,8.25,-21.97314,-85.50529,-172.0125,0.7280936,0.6745207,0.09318787,0.0788528
16102,0.1320055,-0.03189562,-0.3438275,0.2386344,-0.07840659,-0.5379375,9.385606,-0.04788574,-0.1676001,29.25,-7.5,8.375,-23.13886,-85.45325,-170.7949,0.7282724,0.6743943,0.09351372,0.07788924
16113,0.1351992,-0.03295458,-0.3508758,0.2462174,-0.08164089,-0.5433923,9.395183,-0.02873145,-0.1101372,31.25,-8.75,8.625,-24.22617,-85.39423,-169.6302,0.7285051,0.6742483,0.09367429,0.07677732
16125,0.1385316,-0.03407418,-0.3581416,0.2516914,-0.08456119,-0.5487751,9.395183,-0.03352002,-0.2968916,27.375,-9.25,9.5,-25.33587,-85.29539,-168.4933,0.7289082,0.6738364,0.09422762,0.07588496
16137,0.1420239,-0.03524642,-0.3657288,0.2552823,-0.08569022,-0.5546244,9.356874,-0.1532344,-0.4932232,24.75,-9.5,10.125,-26.64066,-85.15237,-167.1961,0.7294806,0.6731798,0.0951898,0.07500648
16149,0.1453971,-0.03634308,-0.3730811,0.2573227,-0.08365703,-0.5608535,9.289834,-0.3830859,-0.6704004,25.875,-9,9.625,-28.066,-84.9876,-165.7618,0.7301303,0.6724566,0.09619544,0.07388069
16160,0.1487895,-0.03739778,-0.3805176,0.2588032,-0.08046263,-0.5673304,9.261103,-0.483646,-0.7518061,25.625,-8,8.5,-29.38152,-84.8237,-164.4395,0.7307601,0.6717474,0.09719611,0.07278727
16173,0.1527717,-0.03856488,-0.3892664,0.2616028,-0.07667211,-0.5747436,9.270679,-0.5315318,-0.7039204,24.875,-6.75,6.75,-30.67639,-84.66729,-163.1469,0.7313138,0.6711026,0.09825607,0.07174405
16185,0.1561317,-0.03950031,-0.3966463,0.2645054,-0.07363866,-0.5809568,9.270679,-0.5506861,-0.6704004,22.125,-5.5,5.625,-31.62469,-84.56246,-162.2348,0.7316248,0.6706776,0.09923072,0.0712047
16196,0.1596023,-0.04039597,-0.4043146,0.2659716,-0.06863756,-0.5876544,9.227583,-0.6799775,-0.8284234,18.25,-3.875,4.125,-32.53879,-84.45119,-161.4072,0.7319294,0.6701785,0.1005137,0.07097296
16208,0.1633037,-0.04128571,-0.4126375,0.2646278,-0.0636123,-0.5950463,9.194062,-0.6177261,-1.039121,20.375,-2.375,1.875,-33.00544,-84.33271,-161.0036,0.7323903,0.6695521,0.1014491,0.07079967
16221,0.1669715,-0.04219213,-0.4209431,0.2655752,-0.06562989,-0.6013776,9.3042,-0.1676001,-0.7709605,26.75,-1.5,0.5,-32.72478,-84.30595,-161.2606,0.73262,0.6693417,0.1012272,0.07072983
16232,0.1705176,-0.04310977,-0.4289056,0.2702816,-0.06994257,-0.6068971,9.376028,-0.05746289,-0.4453374,27.75,-0.75,0.75,-32.52927,-84.34528,-161.4208,0.7324871,0.6695514,0.1008099,0.07071794
16244,0.1740772,-0.04408317,-0.4368406,0.2745989,-0.07509076,-0.6121237,9.395183,0.0191543,-0.450126,24.125,-0.5,1.875,-32.37062,-84.38476,-161.5929,0.7323126,0.6697297,0.1006981,0.07099645
16255,0.1777025,-0.04512018,-0.4449089,0.2774133,-0.07935436,-0.617406,9.380817,-0.0191543,-0.5794175,24.75,-0.75,2.625,-32.29083,-84.39566,-161.6783,0.7322717,0.6697685,0.1006596,0.07110618
16267,0.1813388,-0.04609682,-0.4529589,0.2818202,-0.07569151,-0.6238847,9.261103,-0.6512461,-0.5937832,29.875,-1.25,1.5,-33.01073,-84.36939,-160.8927,0.732262,0.6698608,0.1007365,0.07022177
16278,0.1850567,-0.04697376,-0.4612072,0.2844788,-0.0671003,-0.6311392,9.174909,-0.9960235,-0.8140576,26.5,0.125,-0.25,-33.96505,-84.31369,-159.913,0.732308,0.6698189,0.1012597,0.06938424
16290,0.1890567,-0.04785839,-0.4701605,0.2851056,-0.0630526,-0.6381509,9.23716,-0.6033604,-0.8858863,23.875,2.25,-2.625,-34.05224,-84.30673,-159.8378,0.732312,0.6697928,0.1013967,0.06939407
16302,0.1931074,-0.04869118,-0.4792563,0.2873666,-0.05908034,-0.6452766,9.241948,-0.6225147,-0.7661719,23,3.625,-4.375,-34.07529,-84.34518,-159.8379,0.7320929,0.6700007,0.1014381,0.06963833
16314,0.1968221,-0.04945114,-0.4875679,0.291024,-0.05953936,-0.6511796,9.313777,-0.3352002,-0.5602632,19.875,4.625,-5.125,-33.72655,-84.44067,-160.2488,0.7316535,0.6704043,0.1013506,0.07049338
16326,0.2007066,-0.05027117,-0.4962055,0.2953578,-0.06235005,-0.656752,9.366451,-0.158023,-0.4644917,20.625,4.625,-5.5,-33.08621,-84.56252,-160.9442,0.7311514,0.6708953,0.1010037,0.07152235
16337,0.204598,-0.05109012,-0.504838,0.2987147,-0.06286567,-0.6626581,9.323354,-0.2968916,-0.5602632,16.875,5.125,-4.875,-32.71952,-84.66098,-161.4139,0.7306616,0.671286,0.1011546,0.07263921
16349,0.2088706,-0.05206868,-0.5143338,0.3008893,-0.06891256,-0.6687187,9.361663,0.1245029,-0.5554746,16.5,5.125,-4,-31.6867,-84.78489,-162.5681,0.7301761,0.6716565,0.1010149,0.07427291
16361,0.2127541,-0.05306916,-0.5229263,0.3044214,-0.0784259,-0.6735564,9.433492,0.4261831,-0.3447773,22,4.5,-2.75,-30.49695,-84.92422,-163.7988,0.7296704,0.672176,0.1003088,0.07548948
16372,0.2167956,-0.05421431,-0.5317996,0.3090084,-0.08755626,-0.6784346,9.443069,0.3782974,-0.2681602,22.75,3.75,-0.125,-29.71811,-85.05221,-164.6104,0.7291192,0.6727453,0.09981118,0.07639822
16384,0.2208286,-0.05544378,-0.5406128,0.3126561,-0.09531534,-0.6832523,9.433492,0.3112573,-0.3447773,22.625,2.75,2.125,-29.30749,-85.14034,-165.0558,0.7286993,0.6731578,0.09961108,0.07702883
16395,0.224882,-0.0567198,-0.5494729,0.3149799,-0.09915464,-0.6884848,9.380817,0.04309717,-0.5075889,21.25,2.75,3.75,-29.53901,-85.1848,-164.8761,0.7283772,0.6734232,0.09992426,0.07735074
16407,0.2290635,-0.0580368,-0.5586336,0.3168968,-0.09981025,-0.6942537,9.33772,-0.1963315,-0.5937832,20.375,3.5,4.375,-30.30217,-85.21222,-164.1764,0.7280328,0.6736832,0.1005973,0.07745681
16418,0.2331832,-0.0593221,-0.567657,0.3195593,-0.09969754,-0.6999179,9.33772,-0.2777373,-0.5411089,21.25,3.5,4.125,-31.17679,-85.24284,-163.3519,0.7276545,0.673999,0.1012299,0.07743903
16430,0.2374211,-0.06062121,-0.5768787,0.3242953,-0.09941174,-0.7056723,9.347297,-0.3399888,-0.3830859,20.625,3,3.75,-32.17917,-85.28857,-162.4077,0.7271599,0.6744261,0.1019219,0.07745968
16441,0.2416705,-0.06189346,-0.5860195,0.330766,-0.09903071,-0.7115125,9.342508,-0.3926631,-0.2346401,20,2.5,3,-33.20819,-85.34718,-161.4426,0.7265816,0.6749333,0.1026143,0.0775544
16452,0.2461219,-0.06320512,-0.5954552,0.338485,-0.09973892,-0.7174872,9.352086,-0.3399888,-0.1197144,20.375,1.375,2.25,-34.06067,-85.41397,-160.6503,0.7260001,0.6754528,0.1031687,0.07774031
16464,0.2506115,-0.064535,-0.604829,0.3463607,-0.1025982,-0.7231797,9.376028,-0.1867544,-0.04788574,23.25,-0.625,2,-34.51241,-85.47316,-160.2211,0.7255746,0.6758717,0.1033353,0.07785109
16475,0.2552051,-0.06594604,-0.6142969,0.353411,-0.1085582,-0.7284097,9.419126,0.06225147,-0.04788574,27.5,-3.125,2.375,-34.40831,-85.51157,-160.2934,0.7254161,0.6760987,0.1029967,0.07780588
16487,0.2598457,-0.06743851,-0.6237886,0.3585724,-0.1153198,-0.7334084,9.428702,0.1628115,-0.1723887,27.75,-4.5,3.875,-34.18917,-85.51272,-160.4792,0.725481,0.6760869,0.1027025,0.07769218
16498,0.2645713,-0.06903906,-0.6334694,0.360429,-0.1220766,-0.7383708,9.419126,0.2202744,-0.4309717,24.125,-4.75,6.25,-34.04926,-85.46452,-160.6348,0.7257547,0.6757652,0.102867,0.07771697
16510,0.2692437,-0.07068743,-0.6430922,0.3609157,-0.1273264,-0.7432982,9.40476,0.1340801,-0.5698403,22.875,-4.625,8,-34.25974,-85.38701,-160.4568,0.7260939,0.675337,0.1033638,0.07761169
16521,0.2740393,-0.07239591,-0.6529866,0.3629716,-0.1293124,-0.7489018,9.356874,-0.158023,-0.5267432,24.375,-4.5,9,-35.18698,-85.29689,-159.5416,0.7263434,0.6750237,0.1041,0.0770162
16533,0.2790594,-0.07416663,-0.6633806,0.3647271,-0.1286489,-0.7551575,9.313777,-0.3639317,-0.6129375,24.5,-4.125,8.875,-36.41642,-85.18282,-158.3217,0.7266254,0.6746685,0.1050418,0.0761854
16545,0.2838,-0.07584754,-0.6732771,0.3644903,-0.1292413,-0.7609208,9.318565,-0.2537944,-0.742229,22.5,-3,9,-37.29924,-85.07714,-157.4755,0.7269137,0.6742674,0.105977,0.07568957
16556,0.2885638,-0.07760793,-0.6833388,0.3626797,-0.134023,-0.7660227,9.380817,0.07182861,-0.7901148,19.25,-1.375,10.375,-37.8402,-84.9988,-157.0174,0.7271104,0.6738973,0.1069546,0.07572047
16569,0.2938748,-0.0796769,-0.6946527,0.362156,-0.1410825,-0.7714927,9.409549,0.1436572,-0.6656118,14.75,-0.125,12.625,-38.80878,-84.94247,-156.2093,0.7270176,0.6737027,0.1085243,0.0761086
16581,0.2987065,-0.08163597,-0.7048987,0.3660359,-0.1484146,-0.7762048,9.452645,0.1101372,-0.3256231,17.5,-1,14.375,-40.13702,-84.91951,-154.9887,0.7266762,0.6738575,0.1098471,0.07610156
16593,0.3035917,-0.08366021,-0.7151362,0.3727476,-0.1544508,-0.7811316,9.443069,-0.06225147,-0.1340801,24.25,-3.25,15,-41.7725,-84.87994,-153.3699,0.7263643,0.674121,0.1108275,0.07532128
16604,0.3085347,-0.08570666,-0.7253157,0.3817552,-0.1580517,-0.786191,9.428702,-0.3160459,0,26.5,-5.375,15.125,-43.69082,-84.81254,-151.4363,0.7260826,0.6743904,0.1118444,0.07411211
16615,0.3135766,-0.08775412,-0.7354962,0.3921887,-0.1592614,-0.7918807,9.37124,-0.5554746,0.06704004,29.625,-8.5,14.5,-45.61044,-84.70095,-149.4581,0.7259832,0.6745221,0.1127747,0.07245851
16627,0.3188708,-0.08986699,-0.7460352,0.4009224,-0.1600048,-0.7981067,9.328143,-0.584206,-0.09577148,33.125,-11.25,13.625,-47.03749,-84.53417,-147.9237,0.7262857,0.6742969,0.1134249,0.07048186
16638,0.3241027,-0.09198681,-0.7564117,0.4051612,-0.1641618,-0.8035765,9.37124,-0.2681602,-0.3735088,32.375,-12.5,13.875,-47.58136,-84.34753,-147.287,0.7269609,0.6736594,0.1138585,0.06889942
16650,0.3294088,-0.09422068,-0.7669142,0.4083501,-0.1719157,-0.8082568,9.447857,-0.004788574,-0.4118174,29,-13,15.25,-47.81598,-84.16708,-147.0053,0.7276885,0.6728962,0.1144042,0.06776351
16661,0.3347469,-0.09651826,-0.7773824,0.4144182,-0.1783698,-0.8126804,9.4718,-0.1819658,-0.2394287,27.125,-13.875,16.375,-48.4432,-83.98275,-146.354,0.7282444,0.6722618,0.1152999,0.06655847
16673,0.3404328,-0.09889919,-0.7882985,0.4255305,-0.1781867,-0.8169517,9.476588,-0.8140576,-0.04309717,28.5,-16.375,15.75,-49.73081,-83.74095,-145.0163,0.7287402,0.6716871,0.116622,0.06460338
16684,0.3459917,-0.1010968,-0.7987123,0.4359187,-0.1723312,-0.8166424,9.77348,-1.307281,-0.2298516,24,-18.125,13.5,-50.8621,-83.4495,-143.8899,0.7294216,0.6707987,0.1184319,0.06282791
16696,0.3517511,-0.1032534,-0.8091975,0.4423538,-0.1656413,-0.8053105,10.57796,-1.374321,-0.6799775,-2.625,-18.25,11.375,-51.36676,-83.12807,-143.7373,0.7302932,0.6691332,0.1221058,0.06342541
16708,0.3580583,-0.1056016,-0.8203219,0.4450137,-0.165683,-0.7849044,11.16217,-0.8571548,-0.9577149,-34.625,-16.375,11.875,-51.35256,-82.827,-144.5947,0.7310491,0.666749,0.1282759,0.067515
16720,0.3642352,-0.108036,-0.8309013,0.4460202,-0.1757757,-0.7639105,11.29625,-0.1436572,-0.9194063,-42,-13.875,15.375,-51.25006,-82.60512,-145.6318,0.7314444,0.6645384,0.1345673,0.07259191
16733,0.3705562,-0.1107225,-0.8414124,0.4480086,-0.1904118,-0.7449869,11.15738,0.1340801,-0.7805376,-12.375,-14.375,15.75,-51.03317,-82.41379,-146.3848,0.7320082,0.6628377,0.1383288,0.07533509
16745,0.3771665,-0.1137254,-0.8520724,0.4517715,-0.2052287,-0.7285405,10.94668,0.08619434,-0.6943433,43.875,-17.625,10.125,-50.22841,-82.23151,-146.9157,0.7333903,0.6618132,0.1369913,0.07331616
16757,0.3831861,-0.1165534,-0.8615515,0.454998,-0.213754,-0.7164917,10.69289,-0.2490059,-0.8284234,91.5,-19.375,2.75,-49.05123,-82.06118,-147.2068,0.7353081,0.6613371,0.1318106,0.0676847
16769,0.3891657,-0.1193959,-0.8707861,0.4574321,-0.2174554,-0.7064431,10.50613,-0.5746289,-0.9960235,112.375,-17.625,-2.625,-47.76927,-81.90728,-147.3356,0.7373261,0.6611245,0.1249229,0.06048923
16780,0.395117,-0.1222384,-0.8798237,0.4593813,-0.219407,-0.6976096,10.40078,-0.6895547,-1.072641,112.875,-13.5,-6.125,-46.51199,-81.80839,-147.4421,0.7390289,0.6611272,0.1178228,0.05352578
16792,0.4010446,-0.1251029,-0.8886824,0.4611838,-0.2228725,-0.6892285,10.38163,-0.5650518,-1.063064,109.75,-9.75,-7.875,-45.22968,-81.77531,-147.6243,0.740371,0.6613365,0.1107233,0.04717173
16803,0.4071586,-0.1281047,-0.8976427,0.4629402,-0.2272886,-0.6784559,10.54923,-0.5028003,-1.082218,111.25,-6.75,-9.5,-43.87935,-81.79168,-147.8251,0.741482,0.6617531,0.1030901,0.04073824
16815,0.413204,-0.1310959,-0.9062946,0.4654947,-0.230322,-0.6661954,10.67373,-0.6129375,-1.053486,112.375,-4.625,-10.875,-42.65466,-81.83704,-147.9038,0.7423166,0.6623266,0.09544683,0.03434429
16826,0.4192859,-0.1340597,-0.9147396,0.4706605,-0.2293603,-0.6535403,10.70246,-0.9433491,-0.900252,104.25,-3.375,-12.875,-41.68321,-81.90244,-147.8354,0.7428225,0.6629977,0.08851586,0.02852964
16837,0.4254442,-0.1369704,-0.9230071,0.478055,-0.2259535,-0.641782,10.64021,-1.134892,-0.7374405,82.25,-3.75,-15.625,-40.71474,-81.98444,-148.0462,0.7431293,0.663505,0.0831577,0.02459448
16849,0.4319437,-0.1399564,-0.931425,0.486709,-0.2236027,-0.6303663,10.6019,-1.024755,-0.641669,53.375,-6,-16.375,-39.48455,-82.06494,-148.8753,0.7434636,0.663608,0.07969175,0.02314117
16860,0.4382328,-0.1428098,-0.939325,0.4930737,-0.2237075,-0.6193665,10.61148,-0.7853262,-0.775749,23.875,-8.25,-15.25,-38.02546,-82.10551,-150.3301,0.7439817,0.6631283,0.07850286,0.02427869
16872,0.4446931,-0.1457519,-0.947233,0.4962623,-0.2259981,-0.6074657,10.64979,-0.5411089,-1.029544,11.5,-8.625,-14.875,-36.23585,-82.11909,-152.2795,0.7447067,0.6622701,0.07810695,0.02663843
16883,0.4512502,-0.1487518,-0.9550467,0.4984461,-0.2280427,-0.593969,10.75035,-0.5075889,-1.144469,13.5,-7.5,-16.5,-34.29938,-82.13628,-154.3508,0.7454347,0.6614323,0.07742579,0.02897724
16895,0.4577019,-0.1516848,-0.9625199,0.5012593,-0.2278794,-0.5806278,10.75514,-0.6320918,-1.134892,16.125,-6.125,-19.5,-32.36135,-82.1701,-156.3838,0.7460352,0.6607717,0.0764422,0.0311283
16906,0.4642144,-0.154603,-0.969873,0.5042557,-0.2259508,-0.5693441,10.58754,-0.708709,-1.134892,10,-4.5,-21.125,-30.44235,-82.21442,-158.4754,0.7464934,0.660187,0.07587766,0.03381402
16918,0.4713754,-0.157755,-0.9777423,0.5078771,-0.2235509,-0.5581065,10.51571,-0.6704004,-1.115738,-6.5,-2.625,-20.875,-28.4415,-82.2775,-160.8979,0.7467367,0.659583,0.07663032,0.03824218
16930,0.4779707,-0.1606072,-0.9847384,0.5130467,-0.221875,-0.5442362,10.81739,-0.6129375,-1.010389,-24.625,-1.875,-19.125,-26.80065,-82.34675,-163.1578,0.7466774,0.6590583,0.07877745,0.04369431
16941,0.4847397,-0.1635196,-0.9916243,0.5182235,-0.2229677,-0.5271673,11.05682,-0.3495659,-1.015178,-31.5,-2.5,-17.875,-24.99708,-82.40619,-165.683,0.7465887,0.6583965,0.08141454,0.04991173
16953,0.491645,-0.16652,-0.9983633,0.5225346,-0.2270386,-0.5099518,11.05682,-0.05267432,-1.048698,-20.75,-3.875,-17.125,-22.94794,-82.43888,-168.3229,0.7466694,0.6576466,0.08315949,0.05541061
16965,0.4993402,-0.1698711,-1.005539,0.5276874,-0.2297972,-0.4920335,10.9802,-0.1101372,-1.048698,5.25,-6.125,-18.375,-20.63231,-82.42913,-170.9087,0.7471102,0.6568671,0.08291427,0.05896683
16977,0.5063825,-0.1729329,-1.01188,0.5333028,-0.2318699,-0.4802332,10.65458,-0.09577148,-0.9577149,31,-9.125,-20.75,-18.33577,-82.38317,-173.1073,0.7478631,0.6561978,0.08059505,0.06008149
16989,0.5135194,-0.1760222,-1.018136,0.5396526,-0.2335924,-0.4730104,10.31459,-0.07661719,-0.8858863,52.5,-12.625,-22.5,-15.90686,-82.29001,-175.1517,0.7489867,0.6554617,0.07654229,0.05941507
17000,0.5205197,-0.1790125,-1.024144,0.5459127,-0.2331969,-0.4685877,10.10868,-0.191543,-0.9098291,68,-16.25,-23.25,-13.68704,-82.13935,-176.7978,0.7504354,0.6545506,0.07157372,0.05733836
17012,0.5276166,-0.1819843,-1.030128,0.5519434,-0.2311238,-0.4653443,10.00812,-0.2777373,-0.9720806,75.25,-18.5,-23.75,-11.6128,-81.94468,-178.2018,0.7521011,0.6534487,0.06613824,0.05453961
17024,0.5351154,-0.1850226,-1.03632,0.5585755,-0.226316,-0.4612523,10.05601,-0.4405488,-1.024755,78.875,-20.25,-24.875,-9.63277,-81.70899,-179.43,0.7539663,0.6521383,0.06026423,0.05117387
17035,0.542277,-0.1877944,-1.042095,0.5645702,-0.218517,-0.4552793,10.20924,-0.6608232,-1.144469,74.875,-20.375,-25.875,-7.989281,-81.47099,179.5898,0.7557217,0.6507895,0.0551161,0.04816579
17046,0.5496964,-0.190514,-1.047925,0.570289,-0.2090388,-0.4480889,10.28107,-0.7374405,-1.240241,57.25,-18.5,-25.25,-6.52102,-81.24104,178.5733,0.7572898,0.6494045,0.05125983,0.04646045
17058,0.5571185,-0.1930922,-1.053608,0.5762478,-0.2001649,-0.4412528,10.26191,-0.6704004,-1.240241,31.5,-15.625,-22,-5.356631,-81.05332,177.5215,0.7584393,0.6481718,0.04954845,0.04677838
17069,0.5648081,-0.1956182,-1.059351,0.583208,-0.1915798,-0.4355938,10.17093,-0.6129375,-1.182778,6.625,-13,-18,-4.510445,-80.90652,176.4584,0.7591942,0.6470899,0.04996347,0.04901567
17081,0.5724388,-0.1979992,-1.064945,0.5907965,-0.1843489,-0.4330592,9.950658,-0.5028003,-1.096583,-9.375,-11.25,-16.5,-3.756553,-80.7959,175.2831,0.7596335,0.6461685,0.0515954,0.05254634
17092,0.5802474,-0.2003201,-1.070592,0.5992749,-0.1781168,-0.4333589,9.744749,-0.4022402,-1.005601,-11.875,-10.75,-16.75,-2.935811,-80.69999,174.004,0.7599437,0.6453354,0.05334732,0.05640864
17103,0.5881263,-0.2025443,-1.07621,0.6083143,-0.1717286,-0.4338135,9.73996,-0.3926631,-0.9768692,-9.75,-11.125,-17.375,-2.116184,-80.60268,172.757,0.7602463,0.6445161,0.05490377,0.06008499
17115,0.5961792,-0.2047026,-1.081826,0.6185967,-0.1657933,-0.4313696,9.9746,-0.3352002,-0.933772,-10.5,-11.75,-16.375,-1.363459,-80.50682,171.563,0.760507,0.6437051,0.05658496,0.06380411
17126,0.6043339,-0.2068006,-1.087351,0.6282,-0.1616219,-0.4255992,10.21882,-0.158023,-1.019966,-8.5,-12.625,-14,-0.7077636,-80.39201,170.4886,0.7608668,0.6427785,0.05820943,0.06729964
17138,0.6127329,-0.2089068,-1.092881,0.6352357,-0.1592973,-0.4182619,10.29065,0.05267432,-1.235452,2.875,-12.25,-11.625,-0.1183381,-80.25142,169.6184,0.761436,0.6417519,0.05909287,0.06984098
17150,0.6215239,-0.2110716,-1.098526,0.6409736,-0.1578368,-0.4116104,10.19966,0.158023,-1.340801,22.5,-10,-9,0.3504576,-80.12504,169.1241,0.7620812,0.6409452,0.05866412,0.07056971
17162,0.6299955,-0.2131146,-1.103869,0.6475747,-0.1561729,-0.4084332,9.9746,0.1197144,-1.230664,41.75,-7.5,-6.625,0.6197628,-80.05812,169.0806,0.7625644,0.6406427,0.05707184,0.06939079
17173,0.6386372,-0.2151513,-1.109222,0.6569151,-0.154821,-0.4068575,9.888406,0.1005601,-1.010389,56.875,-7.125,-4.375,0.744415,-80.03452,169.3793,0.7629344,0.6407053,0.05455663,0.06671914
17186,0.6484267,-0.2173683,-1.115148,0.6695045,-0.1516187,-0.4052782,9.902772,-0.05267432,-0.8858863,73.75,-9,-3.375,0.6582685,-80.01007,170.1829,0.763482,0.6408633,0.05062127,0.06186175
17198,0.6574358,-0.2192908,-1.120525,0.6800904,-0.1451283,-0.4059488,9.735171,-0.3352002,-0.967292,85.25,-10.5,-4.25,0.3919735,-79.95928,171.2563,0.7642064,0.6408417,0.04636456,0.05622055
17209,0.6664834,-0.2210928,-1.125891,0.6888662,-0.1372005,-0.4085245,9.567572,-0.4549146,-1.091795,85.5,-10,-5.125,0.1070676,-79.89536,172.3479,0.7649625,0.6407038,0.04213022,0.05055686
17221,0.6754305,-0.2227732,-1.131185,0.6957272,-0.1306694,-0.4116587,9.495743,-0.3639317,-1.206721,76.75,-7.375,-4,-0.1319656,-79.84863,173.2625,0.7655241,0.6406136,0.03859351,0.04580185
17232,0.6844817,-0.2243956,-1.136513,0.7022485,-0.1258771,-0.4134149,9.596303,-0.2442173,-1.235452,66.75,-4,-0.875,-0.440513,-79.84568,174.1145,0.7657659,0.6407529,0.0358906,0.04183527
17244,0.6938843,-0.2260042,-1.141996,0.7096825,-0.1214148,-0.4138111,9.711228,-0.2394287,-1.187566,59,-1,2.625,-0.9654223,-79.89534,175.0912,0.7656692,0.6411992,0.03394849,0.03823345
17255,0.7031199,-0.2275174,-1.147341,0.7179933,-0.1176358,-0.4155304,9.625034,-0.2346401,-1.067852,53.25,0.5,5.375,-1.642364,-79.97915,176.1296,0.765335,0.6418447,0.0326739,0.03507529
17266,0.7126007,-0.2290124,-1.152797,0.728453,-0.1148692,-0.4192331,9.50532,-0.2011201,-0.8619434,46,0.25,8.625,-2.524499,-80.08819,177.2785,0.7648112,0.6426392,0.03213418,0.03234423
17278,0.7220944,-0.230458,-1.158239,0.7380568,-0.1123837,-0.4230866,9.481377,-0.2106973,-0.900252,41.625,-0.875,11,-3.579156,-80.17065,178.5378,0.7643941,0.6432566,0.03210298,0.02986478
17289,0.7318791,-0.2318973,-1.163844,0.7449363,-0.1095764,-0.4267062,9.467011,-0.2490059,-1.115738,42.25,-0.25,11.875,-4.745458,-80.22306,179.9209,0.7641177,0.643703,0.03210676,0.02720056
17301,0.7415881,-0.2332869,-1.169415,0.7497877,-0.1073114,-0.4302083,9.447857,-0.2346401,-1.249818,46,1.875,11.75,-5.850351,-80.27518,-178.7122,0.7638237,0.6441835,0.03177669,0.02431444
17312,0.7514368,-0.2346725,-1.175083,0.7533051,-0.1059828,-0.4335434,9.447857,-0.191543,-1.336012,53.5,5,12,-6.930001,-80.34962,-177.2714,0.763395,0.6448595,0.03083501,0.02082022
17324,0.7612084,-0.2360021,-1.180717,0.7563698,-0.1029214,-0.4360647,9.500531,-0.3687202,-1.364744,59.25,8.375,12.25,-8.175398,-80.45486,-175.5933,0.7627515,0.6457966,0.02961762,0.01672423
17335,0.7711257,-0.2372512,-1.186425,0.7594841,-0.09565692,-0.4371935,9.601091,-0.742229,-1.369532,54.125,11.875,13,-9.851168,-80.59253,-173.5442,0.761815,0.6470169,0.02910186,0.01265434
17347,0.7810437,-0.238377,-1.192099,0.7636304,-0.08667719,-0.4367985,9.725595,-0.9385605,-1.278549,27.625,15.375,15.625,-11.95048,-80.76924,-171.4193,0.760497,0.6485211,0.03086327,0.01058326
17358,0.7911894,-0.2394761,-1.197824,0.7703022,-0.08344723,-0.4347147,9.897983,-0.5602632,-1.043909,-13.25,17.875,23.625,-14.47572,-80.99434,-169.4203,0.7587091,0.6503247,0.03600392,0.0119207
17370,0.801877,-0.2406978,-1.203755,0.7786415,-0.08900809,-0.4320503,9.979389,0.0191543,-0.8523662,-45.25,17,35.375,-17.64256,-81.21246,-167.2604,0.7566625,0.6521043,0.04435138,0.01596097
17382,0.8122517,-0.2419927,-1.209462,0.7854864,-0.09804286,-0.4321292,9.787846,0.2442173,-0.8380005,-48.25,14.75,43.125,-21.13371,-81.35217,-164.7872,0.7548065,0.6534999,0.05304349,0.019788
17393,0.8225459,-0.2433958,-1.215158,0.7914297,-0.1078722,-0.4378865,9.356874,0.2729487,-0.7901148,-17.625,11.5,42.875,-24.4483,-81.42657,-162.0758,0.7532681,0.6547043,0.05922566,0.02102251
17406,0.8342554,-0.245107,-1.221723,0.7995551,-0.1168396,-0.4483069,9.098291,0.06225147,-0.641669,32.375,6.75,35.5,-27.59192,-81.46006,-158.8665,0.7519847,0.6560641,0.06143945,0.01800322
17418,0.8449749,-0.2467215,-1.227802,0.8071303,-0.1215693,-0.4576753,9.088714,-0.2490059,-0.6368804,76.625,1.5,25.625,-29.69216,-81.43475,-156.1042,0.7513654,0.6570957,0.05945579,0.0118492
17429,0.855615,-0.2483412,-1.233907,0.8134671,-0.1238305,-0.4668121,9.06956,-0.4692803,-0.7278633,100.5,-2.125,17.75,-31.08529,-81.3689,-153.7362,0.7511616,0.6577942,0.0551904,0.004127129
17441,0.8661771,-0.2499479,-1.240038,0.8194023,-0.1246496,-0.4755799,9.074348,-0.6177261,-0.7518061,102.25,-3.625,13.5,-32.11617,-81.29193,-151.7163,0.7510689,0.6582747,0.05057972,-0.003427673
17452,0.8768008,-0.251549,-1.246265,0.8255225,-0.1244138,-0.4838729,9.10308,-0.7374405,-0.7374405,88.875,-4.5,10.875,-32.95455,-81.21204,-150.0586,0.7510018,0.6585677,0.04680045,-0.009727855
17464,0.8876858,-0.2531634,-1.252702,0.8307308,-0.123205,-0.4913099,9.160542,-0.8427891,-0.8236348,70,-4.625,8.875,-33.6383,-81.12203,-148.7857,0.7510232,0.6586328,0.04425756,-0.01443473
17475,0.898516,-0.2547536,-1.259157,0.8343086,-0.1225066,-0.4972327,9.256314,-0.8284234,-0.9577149,48.625,-3.375,6.625,-34.0742,-81.04759,-148.0434,0.7511045,0.6585548,0.04309528,-0.01704265
17487,0.9094509,-0.2563694,-1.265721,0.8364478,-0.1235957,-0.5020751,9.33772,-0.7039204,-1.077429,25.75,-0.75,5.5,-34.35217,-81.00708,-147.7586,0.7511457,0.6584761,0.04341666,-0.01744854
17498,0.9202392,-0.257987,-1.272251,0.8389637,-0.1257933,-0.5078682,9.270679,-0.6129375,-1.029544,7.75,2.125,4.875,-34.64899,-81.01622,-147.6883,0.7509786,0.6585978,0.04492709,-0.01617289
17510,0.9313254,-0.2596833,-1.279046,0.8433847,-0.1290456,-0.5169401,9.059982,-0.517166,-0.8475776,-5,3.375,3.125,-34.899,-81.08057,-147.8363,0.750598,0.6589321,0.04719831,-0.01354624
17521,0.9423198,-0.2614036,-1.285906,0.8481346,-0.1327095,-0.5291369,8.820554,-0.450126,-0.775749,-7.625,2.625,0.25,-34.89067,-81.16578,-148.2686,0.75025,0.6592272,0.04934214,-0.01047387
17532,0.9534088,-0.2631665,-1.292975,0.8529956,-0.1356081,-0.5437897,8.6338,-0.4740689,-0.742229,-2.125,0.875,-5.125,-34.46114,-81.26552,-149.0456,0.7500314,0.6594157,0.05066843,-0.007523152
17544,0.9645305,-0.2649501,-1.30021,0.8586901,-0.1377113,-0.5586426,8.619433,-0.5075889,-0.675189,7.25,-1.375,-11.375,-33.54741,-81.38363,-150.1767,0.7499374,0.6595355,0.05081215,-0.00498927
17555,0.9758503,-0.2667948,-1.307692,0.8641723,-0.1408277,-0.5711367,8.815765,-0.4022402,-0.7182862,14.125,-3.75,-17,-31.95587,-81.51068,-151.8935,0.7500803,0.6594586,0.04987663,-0.002509603
17567,0.987099,-0.2686913,-1.315215,0.868823,-0.1464767,-0.5810907,9.007308,-0.1628115,-0.7949033,13.125,-5.5,-17.75,-29.97439,-81.61901,-154.0131,0.7504197,0.6591592,0.0487772,0.0002927094
17578,0.9985893,-0.2706961,-1.322984,0.8724607,-0.1522289,-0.5899258,9.093503,-0.1149258,-0.900252,10.25,-6.375,-15.25,-28.04416,-81.68022,-156.1245,0.7508954,0.6586592,0.0481029,0.003196254
17591,1.010675,-0.272799,-1.331235,0.8754908,-0.1523262,-0.5976822,9.165331,-0.5075889,-1.015178,7,-6.25,-14.25,-26.52409,-81.68626,-157.876,0.7514333,0.6580203,0.04818561,0.005960773
17602,1.022105,-0.2747328,-1.339088,0.8790767,-0.1487328,-0.6039762,9.232371,-0.7661719,-1.005601,-1.125,-5.875,-15.625,-25.30026,-81.68485,-159.4193,0.7518588,0.6574371,0.04901942,0.00905548
17614,1.033729,-0.2766492,-1.347087,0.8852584,-0.1459539,-0.6092204,9.347297,-0.6847661,-0.8332119,-14.375,-6.75,-16.625,-23.96713,-81.70435,-161.2476,0.7521565,0.6568927,0.05071096,0.01345458
17626,1.046445,-0.2787379,-1.355838,0.8926113,-0.1466182,-0.6142571,9.414337,-0.3878745,-0.7901148,-25.375,-9.375,-14.875,-22.3315,-81.69825,-163.5812,0.7525974,0.6560294,0.05335315,0.01939327
17637,1.05777,-0.2806283,-1.363644,0.8977976,-0.149867,-0.6187934,9.40476,-0.1245029,-0.8906748,-27.5,-11.25,-12.25,-20.83294,-81.64935,-165.7294,0.753161,0.6549869,0.05588989,0.02483814
17649,1.069612,-0.282642,-1.371816,0.9026575,-0.1534963,-0.6229802,9.43828,-0.06225147,-0.9577149,-21,-12.875,-10.375,-19.40557,-81.55786,-167.7492,0.7538878,0.6537415,0.05819707,0.0298053
17660,1.081352,-0.284661,-1.379915,0.9087278,-0.1562665,-0.6268433,9.467011,-0.1053486,-0.8954634,-11.875,-14.75,-9,-18.23012,-81.44526,-169.3904,0.7546568,0.6525005,0.0599916,0.03372455
17672,1.0937,-0.2868114,-1.388394,0.9173358,-0.1597632,-0.6298928,9.562783,-0.05746289,-0.7613833,-5.25,-17.625,-7.375,-17.16183,-81.30819,-170.856,0.7555254,0.6511716,0.06148582,0.03710034
17683,1.105325,-0.2888704,-1.396346,0.9240518,-0.1636591,-0.6321095,9.596303,0.02873145,-0.900252,6.5,-20.75,-6,-16.20827,-81.12082,-172.0353,0.7566844,0.649639,0.06213292,0.03921078
17695,1.117575,-0.2910599,-1.404712,0.9287852,-0.1660105,-0.6343288,9.567572,-0.05746289,-1.134892,30.375,-21.875,-7.125,-15.23285,-80.87525,-172.9305,0.7582627,0.6478941,0.06104912,0.03929326
17706,1.129472,-0.2931971,-1.412831,0.934052,-0.1677945,-0.6374273,9.495743,-0.08619434,-1.115738,52.5,-22.125,-9.125,-14.22503,-80.64346,-173.5765,0.7598566,0.6463801,0.05827897,0.03760714
17717,1.141636,-0.2953822,-1.421122,0.9410933,-0.169062,-0.6414596,9.443069,-0.1340801,-1.019966,66,-22.625,-8.625,-13.34381,-80.41866,-173.9155,0.7614307,0.6450155,0.0545731,0.03464432
17729,1.15427,-0.2976096,-1.429705,0.9504033,-0.167549,-0.6455978,9.457435,-0.3639317,-0.9289834,63.625,-23.125,-6,-12.89542,-80.1935,-173.8373,0.7629084,0.6436985,0.05137502,0.03136396
17740,1.166605,-0.2996866,-1.438033,0.9609705,-0.161809,-0.6488304,9.519686,-0.7230747,-0.8906748,39.625,-23.75,-1.875,-13.08057,-79.9688,-173.4511,0.7641705,0.6423401,0.05066703,0.02959102
17752,1.17916,-0.3016792,-1.446444,0.9723723,-0.1543297,-0.651448,9.567572,-0.8810977,-0.8954634,1.625,-23.75,2.875,-13.72111,-79.73841,-173.102,0.7652411,0.6408098,0.05322701,0.03059263
17763,1.192232,-0.3036996,-1.455104,0.9871348,-0.1525631,-0.6539123,9.6394,-0.483646,-0.6608232,-36.25,-25.375,8.5,-14.43245,-79.52254,-173.2025,0.7660487,0.6391328,0.05877414,0.0349881
17775,1.205173,-0.3057884,-1.463569,1.002999,-0.1618994,-0.6561298,9.711228,0.3399888,-0.4740689,-44.375,-30.625,14.25,-14.82842,-79.28568,-173.7195,0.7669619,0.6371588,0.06455962,0.04037435
17786,1.218316,-0.3080886,-1.472062,1.016387,-0.1778875,-0.6567987,9.816577,0.8619434,-0.6608232,-18.25,-37.75,20.5,-15.19273,-78.93514,-173.9471,0.7685785,0.6345723,0.06864371,0.04350992
17798,1.232153,-0.310691,-1.480873,1.02853,-0.1934397,-0.6549411,9.969811,0.7709605,-0.9146177,24.5,-42.25,23.75,-15.80726,-78.47623,-173.3769,0.7709098,0.6316419,0.07013292,0.04251881
17809,1.245155,-0.3132383,-1.489018,1.041033,-0.2039486,-0.6521292,10.05122,0.3974517,-0.967292,68.875,-45.375,23.875,-16.54551,-78.00835,-172.1207,0.7734185,0.6290383,0.06875771,0.03750892
17820,1.258847,-0.3159546,-1.497455,1.053565,-0.2090132,-0.6491912,10.00812,-0.1053486,-1.154046,108.625,-46.875,20.375,-17.28434,-77.4789,-170.3139,0.7763294,0.626361,0.06455409,0.02859078
17832,1.27275,-0.3186739,-1.505907,1.063874,-0.2080874,-0.646761,9.888406,-0.6081489,-1.446149,131,-44.375,14.25,-17.83675,-76.94423,-168.3788,0.7792363,0.6237422,0.0585251,0.01764788
17844,1.287965,-0.3215603,-1.51507,1.073,-0.2035546,-0.6461927,9.682497,-0.9050406,-1.632904,134.25,-36.375,7.125,-18.13457,-76.46271,-166.5194,0.7817873,0.6214114,0.05121237,0.005807569
17856,1.301682,-0.324083,-1.523308,1.080537,-0.1987175,-0.6489074,9.409549,-1.000812,-1.656847,116.125,-27.625,3.875,-18.30592,-76.14586,-165.1755,0.7833629,0.6198798,0.04563705,-0.00299125
17867,1.315967,-0.3266249,-1.531889,1.0895,-0.1938742,-0.6545017,9.218005,-1.019966,-1.532344,81.875,-18.125,3.125,-18.55591,-75.96106,-164.1647,0.7841595,0.6190585,0.0422077,-0.008885609
17879,1.33036,-0.3291396,-1.540553,1.10015,-0.192207,-0.6622624,9.10308,-0.7949033,-1.359955,49.625,-11.25,3.75,-18.79924,-75.89777,-163.5913,0.7843421,0.6188704,0.04089044,-0.01161284
17891,1.346119,-0.331925,-1.550083,1.112287,-0.1966042,-0.6726549,9.012096,-0.3543545,-1.264184,27.375,-5.75,4.75,-18.91434,-75.93674,-163.4471,0.7840883,0.6191905,0.04082697,-0.01190534
17902,1.360442,-0.3345392,-1.558813,1.123434,-0.2050495,-0.6847129,8.839708,0.01436572,-1.173201,24.125,-3,6.375,-18.9229,-76.02536,-163.464,0.7836369,0.619769,0.04081326,-0.01157644
17914,1.375355,-0.337363,-1.568006,1.136553,-0.2151972,-0.7005721,8.624223,0.1388687,-0.967292,25.625,-2,8.75,-19.02326,-76.15293,-163.3757,0.7829435,0.6206499,0.04078493,-0.0113961
17925,1.390211,-0.3402838,-1.577291,1.152282,-0.2265542,-0.7201932,8.380005,0.2537944,-0.6560347,25.625,-4,12.875,-19.28063,-76.28776,-163.1361,0.7821419,0.6216465,0.04099104,-0.01138096
17937,1.405237,-0.3433186,-1.586832,1.167869,-0.2358782,-0.7416331,8.22677,0.09577148,-0.6225147,25.25,-7.625,16.25,-19.76602,-76.35715,-162.6731,0.7815675,0.6223169,0.04165702,-0.01177116
17949,1.422072,-0.3467635,-1.59774,1.181202,-0.241697,-0.7653068,8.145365,-0.225063,-0.900252,33.375,-10.125,13.625,-20.27784,-76.33611,-162.0591,0.7814204,0.6224594,0.04185422,-0.01322008
17961,1.438677,-0.3502361,-1.60878,1.190922,-0.2490599,-0.7917606,7.872416,-0.08140577,-1.077429,59.125,-9.625,5.125,-20.13261,-76.32789,-161.7368,0.7814718,0.622501,0.03912938,-0.01622369
17974,1.455957,-0.3539719,-1.620683,1.199588,-0.2593393,-0.8263004,7.379193,0.1532344,-1.058275,99.125,-8.5,-4.25,-19.23888,-76.38318,-161.5628,0.7814401,0.6227662,0.03197928,-0.02215531
17987,1.473403,-0.3578378,-1.63323,1.207625,-0.267608,-0.8685932,6.842873,0.06225147,-0.9864463,133.75,-7.375,-11.25,-18.02078,-76.47874,-161.1972,0.7811543,0.623193,0.02149945,-0.03108336
17999,1.490532,-0.3616975,-1.646131,1.212925,-0.2733113,-0.9134936,6.545981,-0.08619434,-1.101372,142,-4.625,-13.25,-16.8433,-76.5703,-160.706,0.7806991,0.6234924,0.01062627,-0.04066164
18012,1.507776,-0.3656197,-1.659756,1.21502,-0.2763505,-0.9600219,6.387958,-0.2825259,-1.283338,130.75,0.375,-12.75,-15.89778,-76.66222,-160.1344,0.7800519,0.6237509,0.0009008134,-0.04952788
18024,1.524533,-0.3694322,-1.673665,1.213074,-0.2760068,-1.006942,6.196415,-0.5411089,-1.503612,107,8.25,-12.125,-15.32854,-76.76926,-159.5562,0.7792233,0.624175,-0.006325104,-0.05636303
18036,1.541533,-0.3732123,-1.688547,1.208345,-0.2686802,-1.057772,5.918678,-1.043909,-1.570652,64.125,19.625,-12.75,-15.44037,-76.95104,-158.8716,0.7779521,0.6253716,-0.009649692,-0.06006474
18049,1.558259,-0.376786,-1.704006,1.201794,-0.2567677,-1.110688,5.693615,-1.369532,-1.599384,9.625,31.375,-15.5,-15.9947,-77.23865,-158.504,0.776332,0.6275019,-0.008469849,-0.0589774
18061,1.575003,-0.380249,-1.720288,1.197069,-0.2475867,-1.164105,5.731924,-1.125315,-1.455727,-44.25,42.375,-18.375,-16.43921,-77.7363,-159.0087,0.7740436,0.6309696,-0.00368639,-0.05215681
18073,1.591652,-0.3837117,-1.737139,1.198407,-0.2492422,-1.212904,6.182049,-0.2825259,-1.091795,-74.625,49.125,-20.625,-16.0555,-78.50366,-160.7754,0.7707735,0.6357908,0.0020063,-0.04091666
18085,1.60748,-0.3871405,-1.753614,1.203094,-0.2606215,-1.25227,6.790198,0.517166,-0.8858863,-63.375,49.25,-21.375,-14.76,-79.33104,-163.2437,0.7672062,0.6406687,0.005588834,-0.03011787
18096,1.623106,-0.3907209,-1.770255,1.207908,-0.2767788,-1.286414,7.158918,0.9625034,-0.8571548,-16.25,45.75,-23,-12.65055,-80.11085,-165.8973,0.7637121,0.6451254,0.005173064,-0.02302714
18108,1.640257,-0.3948247,-1.788984,1.210128,-0.2895517,-1.321461,7.278633,0.675189,-1.010389,41.125,42.75,-26.625,-9.995413,-80.85145,-168.3218,0.7601659,0.6493909,0.0002520098,-0.02095322
18120,1.655676,-0.3985621,-1.806247,1.208141,-0.2928355,-1.35261,7.25469,0.06704004,-1.240241,75.375,43,-31.5,-7.651685,-81.43272,-170.0049,0.7571759,0.6527922,-0.006317299,-0.02252034
18132,1.671388,-0.4023664,-1.824288,1.203664,-0.2914501,-1.382119,7.412713,-0.2681602,-1.364744,88.25,46.125,-36.5,-5.042582,-82.02229,-171.7608,0.7539777,0.6562613,-0.01398643,-0.02536326
18143,1.686952,-0.4061301,-1.842582,1.198152,-0.2897342,-1.408346,7.65693,-0.258583,-1.398264,88,50,-39,-1.924573,-82.637,-174.0314,0.7505038,0.6599128,-0.02177259,-0.02802245
18155,1.70394,-0.4102417,-1.863043,1.191289,-0.2883314,-1.434823,7.829319,-0.1771773,-1.383898,86.125,54.125,-39.75,2.192484,-83.34245,-177.2456,0.7463143,0.6641979,-0.03026309,-0.03066574
18167,1.719049,-0.4138804,-1.881646,1.184644,-0.2852984,-1.458612,7.834107,-0.2729487,-1.321646,85.875,56.5,-40.5,6.4055,-83.97051,179.3477,0.7423567,0.6681201,-0.03772575,-0.03314763
18178,1.734344,-0.4175081,-1.900916,1.177296,-0.279229,-1.483188,7.824531,-0.4597031,-1.245029,78,58.5,-41.375,11.2557,-84.60344,175.2191,0.7381589,0.6722323,-0.04453151,-0.03524465
18190,1.749568,-0.4210294,-1.920506,1.169581,-0.2705162,-1.505009,8.059171,-0.6129375,-1.168412,59,60.25,-41.375,16.91992,-85.22701,170.0315,0.733831,0.6765569,-0.04967701,-0.03598566
18201,1.764507,-0.4244043,-1.940076,1.161302,-0.2623506,-1.521306,8.480565,-0.5219546,-1.154046,36.625,61.25,-40.125,24.01941,-85.79723,163.1132,0.7295567,0.6809691,-0.05301485,-0.034894
18213,1.779746,-0.4277923,-1.960357,1.152421,-0.2562218,-1.533739,8.815765,-0.2825259,-1.120526,21.375,60.5,-38,33.40474,-86.28132,153.7093,0.7252727,0.6854733,-0.05526548,-0.03242808
18224,1.794503,-0.4310341,-1.980278,1.144224,-0.2513549,-1.544595,8.925902,-0.1245029,-1.000812,18.625,58.25,-36.5,44.54184,-86.61372,142.5167,0.721222,0.6896932,-0.05721995,-0.02980012
18235,1.809274,-0.4342603,-2.000491,1.136237,-0.2481715,-1.554854,8.983365,0.07661719,-0.9050406,24.75,54.125,-35,56.90146,-86.75877,130.1789,0.7174093,0.6935409,-0.05969227,-0.02759884
18247,1.823801,-0.437418,-2.020648,1.127914,-0.245169,-1.56497,8.992943,0.1436572,-0.8571548,35,49,-33.25,68.32528,-86.73057,118.907,0.7140293,0.6967941,-0.06281949,-0.026343
18259,1.838726,-0.4406219,-2.041691,1.117427,-0.2398824,-1.57557,8.997731,0.01436572,-0.9050406,43.375,43.5,-31.125,77.6924,-86.59879,109.8086,0.7110864,0.6994769,-0.0663988,-0.02606623
18270,1.852829,-0.4436035,-2.061897,1.106461,-0.2339217,-1.585253,9.040829,-0.02394287,-0.9146177,45.75,39.25,-29,84.63865,-86.42451,103.148,0.7086795,0.7015838,-0.06975973,-0.02621289
18281,1.867101,-0.4465702,-2.082666,1.095894,-0.2278083,-1.594835,9.06956,0.0191543,-0.8188462,47.375,33.75,-26.5,89.97288,-86.22379,98.1238,0.7066154,0.7033038,-0.07313094,-0.02665311
18293,1.881382,-0.4494955,-2.103773,1.085756,-0.2224038,-1.604748,9.050406,0.1149258,-0.7518061,51.875,27.625,-24.25,93.6744,-86.00831,94.7917,0.7049901,0.7045099,-0.07678782,-0.02753737
18304,1.895226,-0.4522804,-2.124547,1.076121,-0.2164724,-1.614752,9.031251,0.09098291,-0.7039204,55.125,19.875,-20.875,95.57568,-85.83401,93.2906,0.704013,0.705038,-0.08031551,-0.02892287
18316,1.909011,-0.454989,-2.14557,1.066011,-0.2094509,-1.625638,8.973788,0.01436572,-0.7182862,50.625,13.375,-16.875,96.11965,-85.72057,93.08768,0.7036356,0.7050325,-0.083106,-0.03032281
18327,1.923822,-0.4578442,-2.168575,1.05445,-0.2032701,-1.637817,8.940269,0.1149258,-0.7853262,43.875,7.375,-12.125,95.38146,-85.64337,94.09911,0.7038782,0.7044798,-0.08526698,-0.03151642
18339,1.937299,-0.4604117,-2.18988,1.043536,-0.1988033,-1.649644,8.882805,0.2011201,-0.8427891,44.5,2.5,-8.25,93.76405,-85.60221,95.97376,0.7045596,0.7035133,-0.08709764,-0.03284583
18351,1.950758,-0.4629228,-2.211571,1.031819,-0.1925257,-1.663068,8.777456,0.04309717,-0.900252,50.5,-1.375,-7,91.34093,-85.59113,98.73366,0.7056081,0.7021011,-0.08918304,-0.03489749
18362,1.964251,-0.4653549,-2.233775,1.020352,-0.1839098,-1.679028,8.609857,-0.1436572,-0.8715205,53.625,-5.125,-7.5,88.30237,-85.58718,102.1535,0.706926,0.7003607,-0.09140645,-0.03735572
18375,1.978947,-0.4678925,-2.258466,1.010388,-0.1744672,-1.697581,8.538028,-0.1245029,-0.7326519,46.625,-9.125,-6.875,84.64696,-85.56434,106.1232,0.7085571,0.6983601,-0.09319623,-0.0394265
18387,1.992238,-0.4701197,-2.28115,1.003808,-0.1682078,-1.713186,8.619433,0.08140577,-0.6273032,35.875,-14.25,-3.375,80.84105,-85.52184,110.0691,0.7103371,0.6963967,-0.09390256,-0.04043844
18399,2.005418,-0.4722771,-2.303957,0.9979415,-0.1633513,-1.726827,8.753514,0.191543,-0.6560347,33.375,-20.375,0.25,76.11446,-85.45361,114.899,0.7126023,0.693977,-0.09425793,-0.04134586
18410,2.018136,-0.4743088,-2.326265,0.9911659,-0.1583379,-1.738655,8.858863,0.1436572,-0.8044805,38.625,-24.75,1.25,70.82737,-85.33952,120.3523,0.7152047,0.69112,-0.09492674,-0.04271286
18421,2.030797,-0.4762827,-2.34875,0.9846445,-0.1535084,-1.748565,9.00252,0.1532344,-0.8667319,46.75,-27.625,1.875,65.47583,-85.16977,125.9738,0.7179655,0.6879446,-0.09621198,-0.04473216
18433,2.043944,-0.478272,-2.372331,0.9793883,-0.1481979,-1.756767,9.160542,0.1436572,-0.8380005,52.25,-30.125,2.875,60.12661,-84.94917,131.6771,0.7208902,0.6844612,-0.09791561,-0.04735953
18444,2.056307,-0.4800746,-2.394701,0.9747209,-0.1421152,-1.763608,9.232371,0.04309717,-0.8810977,54.125,-32.125,4.25,55.16756,-84.70883,136.9939,0.7237545,0.6810033,-0.09948885,-0.05015847
18456,2.068916,-0.4818207,-2.417711,0.9699071,-0.1343178,-1.770003,9.280257,-0.1053486,-0.9433491,53,-33.125,4.875,50.30318,-84.43243,142.2109,0.7267496,0.6773806,-0.1008516,-0.0530996
18467,2.081368,-0.4834365,-2.440631,0.964793,-0.125191,-1.775816,9.318565,-0.2490059,-1.029544,49.5,-33.125,4.75,45.85072,-84.12904,146.9698,0.7297297,0.673798,-0.1018473,-0.05583836
18479,2.093997,-0.4849391,-2.464101,0.9583513,-0.1140314,-1.781141,9.356874,-0.4405488,-1.173201,39,-31.375,4,41.73935,-83.80473,151.2592,0.732744,0.6703278,-0.1019685,-0.05787337
18490,2.106313,-0.4862754,-2.487161,0.9536043,-0.1034582,-1.785404,9.428702,-0.4118174,-1.139681,24.875,-28.375,3.375,38.49557,-83.50336,154.4966,0.7354177,0.6674585,-0.1011023,-0.05863753
18501,2.118723,-0.4875091,-2.510481,0.9523947,-0.09468419,-1.789676,9.43828,-0.2298516,-0.967292,13.75,-26.375,3,36.024,-83.22509,156.8159,0.7377722,0.6651175,-0.09956691,-0.05828647
18513,2.131074,-0.4886492,-2.533715,0.9539428,-0.08806004,-1.794537,9.395183,-0.04309717,-0.8475776,10.625,-26.375,3.125,34.07073,-82.9526,158.5756,0.7399392,0.6630138,-0.09796441,-0.0574962
18524,2.143544,-0.4897358,-2.557139,0.9575694,-0.08343755,-1.798685,9.452645,0.1340801,-0.7901148,14,-27.875,3.625,32.41851,-82.66241,160.0744,0.742076,0.6608604,-0.09673636,-0.05682254
18536,2.156039,-0.4907928,-2.580519,0.9625085,-0.08142252,-1.801098,9.577148,0.3447773,-0.8092691,22.75,-29.625,5,30.97239,-82.34837,161.4778,0.7442185,0.6585233,-0.09625465,-0.05675347
18548,2.1689,-0.4918359,-2.604474,0.9681238,-0.07851953,-1.803114,9.615458,0.2729487,-0.8236348,35.125,-31.125,7,29.33767,-82.02118,163.2317,0.7464208,0.6558876,-0.09648221,-0.0579543
18560,2.182208,-0.492825,-2.629196,0.9728937,-0.07230625,-1.807321,9.462223,-0.009577149,-0.8906748,43.625,-31.75,7.125,27.48608,-81.67783,165.3252,0.7487149,0.6529651,-0.09713616,-0.06022695
18571,2.194955,-0.4936781,-2.652868,0.9763993,-0.06534579,-1.813267,9.3042,-0.1388687,-0.9912349,49.375,-30.875,5.375,25.92208,-81.34351,167.1989,0.7508206,0.6501254,-0.09825061,-0.06286615
18583,2.207823,-0.4944315,-2.676793,0.9791432,-0.05732474,-1.820519,9.198852,-0.258583,-1.072641,50,-28.25,3.375,24.58987,-81.02674,168.8558,0.7527399,0.6474457,-0.09949558,-0.06555337
18595,2.222168,-0.4951256,-2.703497,0.9825395,-0.04754052,-1.829008,9.17012,-0.3399888,-1.082218,40.375,-24.25,2.625,23.30667,-80.73384,170.3623,0.75456,0.6450161,-0.1000669,-0.06767635
18607,2.235282,-0.4956515,-2.727886,0.9875674,-0.0396083,-1.83664,9.189274,-0.2537944,-0.9960235,26.25,-20.75,2.875,22.36795,-80.52993,171.3159,0.7559152,0.6434351,-0.09957465,-0.0683261
18619,2.248359,-0.4960998,-2.752112,0.9949634,-0.03411059,-1.843296,9.270679,-0.04788574,-0.900252,18.875,-18.75,3.625,21.67357,-80.3708,171.9248,0.7570165,0.6422963,-0.09865367,-0.06818387
18630,2.261266,-0.4964997,-2.77589,1.003466,-0.03108706,-1.848711,9.356874,0.1436572,-0.8858863,17.125,-17.5,5.5,21.07685,-80.23676,172.411,0.7579672,0.641367,-0.09763201,-0.06783964
18642,2.274543,-0.4968734,-2.800207,1.012864,-0.02851143,-1.854996,9.3042,0.1771773,-0.8523662,18.375,-16.75,7.75,20.36715,-80.12003,173.0215,0.7588425,0.6405119,-0.09651613,-0.06772972
18653,2.287859,-0.4972166,-2.824459,1.022786,-0.02635664,-1.862812,9.189274,0.1963315,-0.8140576,20.875,-16.375,9.625,19.57853,-80.01743,173.7417,0.759636,0.6397074,-0.09545278,-0.06794493
18664,2.301229,-0.4975344,-2.848688,1.03256,-0.02454281,-1.871103,9.146177,0.1963315,-0.8380005,24.375,-16,11.25,18.70907,-79.91878,174.5867,0.7603924,0.6388801,-0.09452495,-0.068561
18676,2.314695,-0.4978124,-2.872995,1.04137,-0.02150048,-1.879712,9.112657,0.05746289,-0.900252,24.75,-15.25,13,17.62647,-79.82347,175.6497,0.7611625,0.6380348,-0.09337147,-0.06946379
18687,2.328202,-0.49804,-2.897313,1.04947,-0.01768185,-1.889504,9.012096,-0.04788574,-0.933772,19.625,-13.375,14.5,16.39853,-79.747,176.7922,0.7618787,0.6373561,-0.091649,-0.07013315
18699,2.342093,-0.4982313,-2.922264,1.05818,-0.01457422,-1.900602,8.930691,-0.01436572,-0.9098291,13.75,-11.75,15.5,15.15536,-79.69099,177.8694,0.7625094,0.6368966,-0.08942117,-0.07032766
18710,2.355927,-0.4984027,-2.947038,1.067631,-0.01322744,-1.911999,8.901959,0.1005601,-0.8763091,12.125,-10.625,16.375,14.01163,-79.65284,178.8256,0.7630152,0.6366084,-0.08715176,-0.07030117
18722,2.370095,-0.4985749,-2.972317,1.078296,-0.01310302,-1.923824,8.892383,0.1819658,-0.8188462,16.5,-10.375,17,12.9144,-79.62438,179.788,0.7634065,0.6363699,-0.08520934,-0.07059336
18733,2.384079,-0.498734,-2.997173,1.088689,-0.01239216,-1.935213,8.906748,0.1053486,-0.8188462,22,-10.75,17.375,11.77698,-79.58925,-179.1351,0.763772,0.6360473,-0.08362973,-0.07143019
18745,2.398411,-0.4988492,-3.02258,1.097701,-0.008819148,-1.945901,8.959422,-0.1723887,-0.9050406,18.75,-10.375,17.75,10.38044,-79.54044,-177.8387,0.7642372,0.6356627,-0.08153408,-0.07229617
18756,2.41277,-0.4988943,-3.047982,1.10518,-0.0034748,-1.955219,9.040829,-0.3735088,-1.010389,4,-8.375,18.625,8.795429,-79.49565,-176.5432,0.764775,0.6354587,-0.07815801,-0.072129
18768,2.427594,-0.4988669,-3.074142,1.11261,0.00206036,-1.963343,9.141388,-0.4213945,-1.048698,-18,-5,19.375,7.104866,-79.48402,-175.4434,0.7652721,0.6357048,-0.07297364,-0.07009189
18779,2.441785,-0.4988077,-3.09909,1.120508,0.004675836,-1.969862,9.241948,-0.2346401,-1.039121,-31.875,-2.125,19.875,5.632539,-79.51026,-174.7119,0.7655892,0.6363129,-0.06719804,-0.06680942
18790,2.456518,-0.4987529,-3.124856,1.129459,0.004198181,-1.975289,9.347297,-0.009577149,-1.029544,-32.375,-0.25,19.5,4.334887,-79.56525,-174.187,0.7657128,0.6371228,-0.06144926,-0.06310809
18802,2.471349,-0.4987428,-3.150631,1.138977,0.0007774276,-1.979536,9.443069,0.2011201,-1.024755,-21,0.75,18.125,3.312173,-79.6375,-173.7889,0.7656232,0.6379509,-0.05684247,-0.06007306
18814,2.487741,-0.4988199,-3.178898,1.150749,-0.005415278,-1.984305,9.452645,0.3687202,-0.9385605,0.625,0.5,16.875,2.441472,-79.72929,-173.2942,0.7652747,0.638777,-0.05380396,-0.05851357
18826,2.502484,-0.4989379,-3.204167,1.161415,-0.009297118,-1.990661,9.294622,0.225063,-0.8619434,22,-1.25,16.25,1.603571,-79.79292,-172.5169,0.7649089,0.6392719,-0.05256399,-0.05901589
18837,2.517794,-0.4990787,-3.230271,1.172384,-0.01077622,-1.998876,9.17012,0.009577149,-0.7996919,31.375,-3.5,15.875,0.6061837,-79.82941,-171.4555,0.764606,0.6395521,-0.05184528,-0.06052224
18849,2.533152,-0.4992254,-3.256338,1.182651,-0.01130043,-2.007313,9.141388,-0.1005601,-0.8284234,30.25,-5.75,16.375,-0.4671438,-79.8238,-170.3318,0.7645176,0.6395848,-0.05095281,-0.06203173
18860,2.549045,-0.4993807,-3.283219,1.191618,-0.01164699,-2.015554,9.150966,-0.1676001,-0.9481377,24.75,-6.875,17.125,-1.617969,-79.77676,-169.2025,0.7646675,0.6394047,-0.0495455,-0.06317046
18871,2.564121,-0.4995318,-3.308667,1.198797,-0.01201131,-2.023509,9.117445,-0.2106973,-1.048698,20.75,-6.75,17.125,-2.685867,-79.71439,-168.2051,0.7649149,0.6391578,-0.04793528,-0.06391218
18883,2.57983,-0.4996971,-3.335128,1.206296,-0.01268949,-2.031876,9.107868,-0.2154858,-1.048698,18.625,-6.125,16.25,-3.70538,-79.65832,-167.2854,0.7651294,0.6389781,-0.04620914,-0.06441028
18894,2.595685,-0.4998761,-3.36177,1.214206,-0.01371102,-2.040329,9.107868,-0.2106973,-1.024755,17.125,-6,15.375,-4.634942,-79.60897,-166.4747,0.765313,0.6388537,-0.0444743,-0.06468485
18906,2.611793,-0.5000801,-3.388772,1.222315,-0.01548176,-2.048951,9.10308,-0.1771773,-1.024755,15.625,-5.875,15.125,-5.49923,-79.56187,-165.7504,0.7654917,0.6387547,-0.04268922,-0.06475006
18917,2.627626,-0.5003159,-3.415262,1.22968,-0.01831188,-2.057348,9.098291,-0.1197144,-1.082218,15.75,-5.375,14.875,-6.249254,-79.51574,-165.1366,0.7656721,0.6386492,-0.04104746,-0.06471901
18929,2.643593,-0.5005873,-3.441941,1.236343,-0.0210188,-2.06588,9.079137,-0.158023,-1.134892,17.375,-4.375,14.5,-6.992865,-79.47282,-164.5082,0.7658132,0.6385655,-0.03952856,-0.06482203
18940,2.659755,-0.5008891,-3.468922,1.242875,-0.02320508,-2.074866,9.045617,-0.2202744,-1.134892,17.875,-2.875,14,-7.767415,-79.44633,-163.8423,0.7658425,0.6386045,-0.03802909,-0.06498747
18952,2.675848,-0.5012065,-3.495775,1.249392,-0.02463742,-2.084696,8.973788,-0.292103,-1.106161,17.625,-1.875,13,-8.533829,-79.43488,-163.1849,0.7657807,0.6387506,-0.0365557,-0.06512371
18963,2.692613,-0.5015253,-3.523763,1.255282,-0.02387511,-2.095637,8.901959,-0.483646,-1.130104,18.125,-1,10.125,-9.288748,-79.42934,-162.5306,0.7656751,0.6389388,-0.03515093,-0.06529484
18975,2.708661,-0.50181,-3.550586,1.259884,-0.02234697,-2.105798,8.906748,-0.5698403,-1.197144,17.125,0.375,6.25,-9.818128,-79.44019,-162.1052,0.7655336,0.6391832,-0.03400236,-0.06516901
18986,2.725232,-0.5020961,-3.578304,1.264232,-0.02182886,-2.114698,9.021674,-0.5028003,-1.249818,12.75,2.5,2.875,-10.09759,-79.48882,-161.9884,0.7652868,0.6396243,-0.03286141,-0.06431977
18998,2.74182,-0.5024006,-3.60605,1.268286,-0.02328902,-2.121454,9.184485,-0.3591431,-1.307281,7.75,5.25,1.75,-10.22294,-79.57706,-162.0929,0.7649038,0.6402985,-0.03157635,-0.0627942
19009,2.758186,-0.502728,-3.633429,1.272375,-0.0254475,-2.128491,9.160542,-0.292103,-1.283338,6,7.875,1.375,-10.33171,-79.70139,-162.2338,0.7643368,0.6412061,-0.03025247,-0.06106411
19020,2.774693,-0.5030842,-3.661063,1.27723,-0.02756094,-2.138191,8.973788,-0.2681602,-1.168412,8,9.375,0.375,-10.41705,-79.86027,-162.3728,0.7635721,0.6423211,-0.02914787,-0.05942893
19032,2.792874,-0.5034875,-3.69155,1.282895,-0.02846068,-2.151238,8.810977,-0.3447773,-1.077429,10.625,9.25,-1.25,-10.48666,-80.04279,-162.5081,0.7626684,0.6435778,-0.02820255,-0.05787148
19044,2.809361,-0.5038328,-3.719268,1.287312,-0.02696174,-2.164243,8.705628,-0.517166,-1.072641,8.125,8.625,-2.75,-10.59045,-80.19123,-162.6173,0.7619413,0.64462,-0.02712381,-0.05634612
19056,2.826158,-0.5041624,-3.747612,1.290906,-0.02533271,-2.178351,8.629011,-0.517166,-1.110949,0.625,8,-4,-10.58118,-80.32736,-162.9391,0.7613532,0.645573,-0.02557891,-0.05406233
19067,2.843311,-0.504495,-3.77667,1.29419,-0.02509584,-2.192418,8.652954,-0.3974517,-1.139681,-5,7.625,-4.125,-10.42933,-80.45979,-163.4853,0.7608475,0.6464811,-0.02370396,-0.05110183
19080,2.862114,-0.5048532,-3.808641,1.297577,-0.02471766,-2.206257,8.758303,-0.3926631,-1.154046,-9.375,7.375,-3.75,-10.28308,-80.59608,-164.1265,0.7603486,0.6474286,-0.02125095,-0.04748318
19092,2.879378,-0.5051735,-3.838103,1.299873,-0.0241177,-2.218319,8.796611,-0.4022402,-1.206721,-15.625,7.625,-2.75,-10.2352,-80.70866,-164.7119,0.7599552,0.6482419,-0.01841628,-0.04371827
19103,2.896581,-0.5055085,-3.86758,1.302393,-0.0253656,-2.231593,8.710417,-0.2394287,-1.173201,-22.125,7.625,-0.75,-10.19765,-80.82127,-165.3739,0.7595696,0.6490571,-0.01507155,-0.03939337
19115,2.913349,-0.5058899,-3.896409,1.306621,-0.0297154,-2.246505,8.585914,0.03830859,-1.015178,-20.625,6.25,1.625,-10.08368,-80.93752,-166.0801,0.7591438,0.6498595,-0.01197754,-0.03521023
19126,2.930238,-0.5063645,-3.925525,1.312821,-0.03689516,-2.263349,8.470988,0.2873144,-0.8427891,-6.75,2.5,3.625,-9.840497,-81.03452,-166.742,0.7587779,0.6504825,-0.009955531,-0.03208539
19138,2.947918,-0.5069493,-3.956139,1.318549,-0.04361013,-2.283112,8.298599,0.2394287,-0.8667319,17.125,-2.875,5,-9.645134,-81.04924,-167.0532,0.7587652,0.6505513,-0.009500665,-0.031116
19149,2.964695,-0.5075406,-3.985383,1.321529,-0.04657412,-2.303554,8.12621,-0.03830859,-1.029544,34,-6.25,5.375,-9.690019,-80.97816,-166.9002,0.7591215,0.6500872,-0.009984707,-0.03195977
19160,2.981882,-0.5081387,-4.01561,1.323096,-0.04604405,-2.326943,7.910725,-0.3256231,-1.110949,38,-8.25,5.5,-9.999258,-80.84977,-166.4243,0.7597243,0.6492966,-0.01047288,-0.03351721
19172,2.998985,-0.5087115,-4.045996,1.324254,-0.04434927,-2.352815,7.700027,-0.4261831,-1.120526,29.5,-8.75,6.75,-10.48443,-80.7028,-165.883,0.7604183,0.6484351,-0.01012924,-0.03454701
19183,3.016446,-0.5092769,-4.077385,1.325179,-0.04291349,-2.382074,7.479753,-0.4118174,-1.125315,15,-8.875,8.75,-11.09,-80.54099,-165.4135,0.7612159,0.6475263,-0.008544357,-0.03445387
19195,3.033569,-0.5098191,-4.108541,1.325878,-0.04198662,-2.412625,7.331307,-0.3830859,-1.139681,3.75,-9.125,10.375,-11.73736,-80.37151,-165.047,0.7620769,0.6465926,-0.006072387,-0.0334679
19206,3.050968,-0.510367,-4.140603,1.327121,-0.04179047,-2.445366,7.206804,-0.3304116,-1.101372,-5.125,-9.75,11.625,-12.40176,-80.1972,-164.7861,0.762979,0.6456389,-0.002868278,-0.03170679
19218,3.068074,-0.5109281,-4.172509,1.329105,-0.0435924,-2.479109,7.096667,-0.1771773,-1.048698,-11.5,-10.5,13.875,-13.02329,-80.02833,-164.6475,0.7638658,0.6447057,0.0007449167,-0.02938047
19229,3.085419,-0.511543,-4.205259,1.331862,-0.04722023,-2.514811,6.991319,-0.04309717,-0.9960235,-17,-12,18.125,-13.77134,-79.84268,-164.4662,0.7648073,0.6436876,0.005001721,-0.02666625
19241,3.102753,-0.5122035,-4.238395,1.335317,-0.05087487,-2.552632,6.828507,-0.04788574,-0.933772,-22.125,-14.875,22.375,-14.75341,-79.61867,-164.1196,0.7658728,0.6424732,0.009973127,-0.02382433
19252,3.120538,-0.5129306,-4.27284,1.339098,-0.05474408,-2.593336,6.680061,-0.05267432,-0.9146177,-26.25,-18.125,26.25,-15.92857,-79.33788,-163.6533,0.7671526,0.6409344,0.0156912,-0.02082966
19264,3.138949,-0.5137458,-4.308989,1.342191,-0.05943044,-2.63533,6.670484,-0.02873145,-1.005601,-30.875,-20.875,30.25,-17.24479,-78.98299,-163.1382,0.7687309,0.638944,0.02225834,-0.0175535
19276,3.156479,-0.5146171,-4.343795,1.346375,-0.06691822,-2.673267,6.842873,0.1676001,-0.967292,-35.25,-23.375,35.375,-18.52218,-78.62805,-162.688,0.7702484,0.6369286,0.02898317,-0.0141219
19287,3.174295,-0.5156623,-4.379433,1.354897,-0.07948877,-2.710343,7.02005,0.4980117,-0.6847661,-30.25,-29.125,42.25,-19.83405,-78.25957,-162.158,0.7717384,0.6348467,0.03557853,-0.01112468
19300,3.194158,-0.5170712,-4.419392,1.367929,-0.09702485,-2.751786,7.05357,0.6943433,-0.4692803,-1.625,-39.375,46.125,-21.09993,-77.76259,-161.3449,0.7737978,0.6320392,0.04062581,-0.01062713
19312,3.212477,-0.5185541,-4.456444,1.378876,-0.1116245,-2.789044,7.077513,0.5363203,-0.6225147,50.125,-50.375,44.875,-21.957,-77.14351,-160.2068,0.7765061,0.6285655,0.04147714,-0.01494217
19323,3.230732,-0.5201073,-4.493665,1.383794,-0.1177415,-2.821458,7.25469,-0.1771773,-1.240241,95,-55.25,39.5,-22.69884,-76.33944,-158.5732,0.7799823,0.6241078,0.03938133,-0.02379506
19335,3.248544,-0.5215819,-4.530341,1.382864,-0.114475,-2.847306,7.498908,-1.015178,-1.857967,99,-50.25,35.625,-23.5808,-75.49039,-156.7529,0.7833855,0.6195005,0.03752572,-0.03344109
19346,3.266328,-0.522948,-4.56731,1.380825,-0.1060748,-2.870554,7.599467,-1.522767,-2.04951,55.875,-38.125,35.125,-24.76582,-74.74027,-155.183,0.7860788,0.6156139,0.0390541,-0.03968076
19358,3.284669,-0.5242665,-4.6057,1.384444,-0.09952323,-2.897761,7.45581,-1.412629,-1.628115,2,-28.875,36.375,-26.14987,-74.15617,-154.1237,0.7879398,0.6127737,0.04441374,-0.04107005
19369,3.302585,-0.5255328,-4.643369,1.393155,-0.09846878,-2.929124,7.22117,-1.010389,-1.187566,-31.375,-25.875,35.125,-27.3117,-73.73878,-153.7111,0.7892351,0.6107074,0.05133867,-0.03884338
19381,3.320866,-0.5268679,-4.681944,1.404188,-0.1025551,-2.963013,7.149342,-0.6320918,-1.015178,-27.375,-27.375,29.625,-28.00949,-73.40191,-153.7171,0.7904436,0.6088018,0.0571102,-0.03602541
19392,3.339033,-0.5282547,-4.720426,1.412292,-0.10781,-2.99164,7.460599,-0.5937832,-1.359955,-6.375,-27.875,22.125,-28.25345,-73.06908,-153.8912,0.7918802,0.6066803,0.06064037,-0.0344623
19404,3.357659,-0.5297657,-4.759998,1.416663,-0.114921,-3.009767,8.202827,-0.5650518,-1.905853,7.125,-22.125,16.75,-28.2534,-72.77896,-154.1438,0.7932651,0.6047028,0.06277654,-0.03352809
19415,3.376071,-0.5313799,-4.7991,1.42358,-0.124802,-3.023231,8.605068,-0.4070288,-1.81487,4.25,-14,18,-28.41766,-72.62891,-154.2767,0.7938875,0.6037216,0.06502865,-0.03216054
19426,3.394913,-0.5331559,-4.839011,1.434982,-0.1352654,-3.039612,8.49972,-0.3830859,-1.436572,-1.5,-8.5,21.75,-28.91542,-72.58005,-154.1644,0.7937874,0.6036119,0.06802054,-0.03045391
19438,3.413526,-0.5350242,-4.878366,1.446923,-0.1452371,-3.059317,8.241137,-0.3878745,-1.297704,7.125,-7.625,21.5,-29.43707,-72.558,-153.9083,0.7935039,0.6037635,0.07034603,-0.02954202
19449,3.432582,-0.5370389,-4.918679,1.457308,-0.1540721,-3.082998,7.92509,-0.4549146,-1.350378,33.25,-7.625,16.25,-29.77144,-72.54241,-153.4921,0.7932584,0.6040086,0.07051152,-0.03070697
19461,3.45159,-0.5391243,-4.959016,1.465003,-0.1607251,-3.108841,7.676085,-0.5937832,-1.494035,55.125,-5.25,11,-29.9681,-72.54118,-152.9216,0.7929842,0.6044028,0.06886807,-0.03362237
19472,3.471093,-0.5412636,-5.000484,0,0,0,7.709605,-1.067852,-1.422207,57.875,-0.5,7,-30.37185,-72.59167,-152.0842,0.7922634,0.6053414,0.06709332,-0.03713346
19485,3.471262,-0.5412554,-5.000772,0,0,0,8.116633,-1.264184,-1.288126,37.5,3.75,4.25,-30.88887,-72.73192,-151.3903,0.7911177,0.6067926,0.06657735,-0.03877003
19496,3.47143,-0.5413236,-5.00095,0,0,0,8.681685,-0.900252,-1.292915,18.625,6.75,3.375,-31.21028,-72.94981,-151.1585,0.7899005,0.6083887,0.06690682,-0.03799858
19508,3.471582,-0.5415061,-5.00107,0,0,0,9.083925,-0.2490059,-1.403052,19.625,10,4,-31.28746,-73.23923,-151.1767,0.7885947,0.6101949,0.06665672,-0.0365725
19520,3.471749,-0.5418612,-5.001265,0,0,0,8.954634,0.4166059,-1.379109,51.25,13.75,4.375,-31.12988,-73.65546,-151.0012,0.7867973,0.6128131,0.06337121,-0.0373393
19532,3.471922,-0.542217,-5.00152,0,0,0,8.542816,0.8332119,-1.024755,114.625,15.25,3.375,-30.8366,-74.12877,-150.1534,0.7845611,0.6160575,0.05536546,-0.04326422
19544,3.472124,-0.5424421,-5.001831,0,0,0,8.159731,0.1723887,-0.7182862,189.125,13,-2.75,-30.67521,-74.58984,-148.1718,0.7817354,0.6196387,0.04213405,-0.05623524
19555,3.47219,-0.5424377,-5.00211,0,0,0,7.92509,-1.197144,-1.350378,230.125,15.25,-14.125,-30.65148,-74.90272,-145.5357,0.7788838,0.6222979,0.02667036,-0.07330824
19566,3.472037,-0.5422224,-5.002288,0,0,0,8.059171,-2.695967,-2.51879,198,32.375,-25.125,-30.98783,-75.17753,-142.9478,0.7758163,0.6246195,0.01393925,-0.08812112
19578,3.471822,-0.5419407,-5.002417,0,0,0,8.298599,-3.131728,-2.724699,89.5,57.25,-24.125,-32.2854,-75.65153,-140.8063,0.7719746,0.628618,0.009311542,-0.09385078
19589,3.471779,-0.5417028,-5.002588,0,0,0,8.274656,-2.777373,-1.656847,-70.125,77.75,-10.25,-35.18015,-76.3344,-139.1788,0.7675259,0.6349423,0.01724616,-0.08634199
19601,3.471964,-0.5415992,-5.002877,0,0,0,8.001708,-1.757407,-0.2298516,-184.75,78.875,3.375,-39.1306,-77.16789,-138.0219,0.7624977,0.6424243,0.03391564,-0.06883374
19612,3.472282,-0.5417204,-5.003226,0,0,0,7.915514,-0.3639317,0.7182862,-203.75,60.625,6.375,-42.39676,-78.0508,-137.7423,0.7576793,0.6488515,0.05041399,-0.04870627
19624,3.472595,-0.5420086,-5.003518,0,0,0,8.432679,0.5363203,0.6704004,-121.25,35.375,-4.5,-43.66559,-78.87732,-138.4206,0.754086,0.6532376,0.05921555,-0.0335924
19635,3.472739,-0.5422649,-5.003597,0,0,0,9.4718,0.3735088,-0.4022402,-1.375,14.125,-21,-42.64353,-79.45219,-139.7831,0.7526866,0.6552243,0.05791694,-0.02809915
19647,3.472716,-0.5423571,-5.003389,0,0,0,10.87964,-0.675189,-1.628115,54,10.25,-29,-40.98862,-79.82336,-141.0454,0.7522714,0.6561472,0.05278929,-0.02778732
19658,3.472592,-0.5423227,-5.00305,0,0,0,11.54525,-1.422207,-2.336824,34.75,19.5,-26.375,-40.00473,-80.13331,-141.897,0.7516116,0.6571688,0.05000354,-0.02662188
19670,3.472493,-0.5422536,-5.002796,0,0,0,11.00893,-1.503612,-2.054298,-20.75,32.25,-18.25,-40.25476,-80.51121,-142.252,0.749966,0.6590648,0.05222169,-0.02139225
19681,3.472473,-0.5422297,-5.002763,0,0,0,9.84052,-1.082218,-1.359955,-41.75,36,-16.375,-40.89053,-80.97692,-142.4893,0.747712,0.6615064,0.05594291,-0.01436615
19693,3.472508,-0.5422306,-5.00296,0,0,0,8.60028,-0.775749,-0.8236348,-18.875,30.25,-21.875,-40.9778,-81.49265,-142.9815,0.7454992,0.6639771,0.05736457,-0.008646332
19704,3.472571,-0.5422164,-5.003263,0,0,0,7.881993,-0.7661719,-0.517166,8.25,20.375,-27.875,-40.32864,-81.94917,-143.8295,0.7438804,0.6659157,0.05631987,-0.005141571
19715,3.472632,-0.5421624,-5.003655,0,0,0,7.42229,-0.9098291,-0.483646,21.75,8.75,-32.125,-38.84313,-82.28885,-145.3309,0.7431327,0.6669441,0.05414538,-0.002759928
19727,3.472617,-0.5420484,-5.004007,0,0,0,7.561159,-1.206721,-0.9816577,21.125,2.375,-35.5,-36.59959,-82.45933,-147.5938,0.7434222,0.6667858,0.05215242,-0.0005240687
19739,3.472518,-0.5418714,-5.004225,0,0,0,8.561971,-1.350378,-1.517978,12.75,2.375,-39.625,-33.33004,-82.59591,-151.0045,0.744195,0.6660581,0.05031005,0.003057988
19751,3.472445,-0.5417448,-5.004269,0,0,0,9.342508,-1.273761,-1.594595,4,4.25,-41.25,-30.22977,-82.74188,-154.3371,0.7446671,0.66559,0.04909167,0.007140607
19762,3.472376,-0.5416093,-5.004246,0,0,0,9.763903,-1.201932,-1.599384,-8.25,5.625,-40.375,-26.98511,-82.89409,-157.9852,0.7449588,0.6652091,0.04877352,0.0124296
19774,3.472316,-0.5414934,-5.004217,0,0,0,9.816577,-1.000812,-1.54671,-23.375,6.875,-37.125,-23.84286,-83.037,-161.7357,0.745039,0.6648923,0.04977202,0.0189205
19785,3.472277,-0.5413757,-5.004266,0,0,0,9.390394,-0.933772,-1.388687,-38.375,7.25,-32.5,-21.18515,-83.15418,-165.1996,0.7449039,0.6645962,0.05234829,0.02626592
19796,3.472235,-0.541258,-5.004386,0,0,0,8.921114,-0.9098291,-1.388687,-52,8.25,-29.375,-18.99493,-83.23804,-168.3354,0.7446503,0.6642144,0.0561483,0.03409858
19808,3.472178,-0.5411758,-5.004518,0,0,0,8.921114,-0.5650518,-1.426995,-61.375,10.375,-25.5,-16.70434,-83.33064,-171.7431,0.7441519,0.6638328,0.06087977,0.04310197
19819,3.472144,-0.5411632,-5.00455,0,0,0,9.514897,-0.1340801,-1.302492,-57.125,10.375,-19,-14.62569,-83.43546,-174.8644,0.7434121,0.6636424,0.06534476,0.05145049
19831,3.472105,-0.541176,-5.004523,0,0,0,9.864463,0.06704004,-1.331224,-33.625,6.875,-13.5,-12.85158,-83.48235,-177.4007,0.7429714,0.6633083,0.0684805,0.0576736
19843,3.472037,-0.5411813,-5.004495,0,0,0,9.850098,0.08619434,-1.513189,7.125,2.25,-9.5,-11.54216,-83.43126,-178.9394,0.7432609,0.6627278,0.06892825,0.06003533
19854,3.471987,-0.5411642,-5.004466,0,0,0,9.869251,-0.05746289,-1.474881,42.5,-1.625,-5.875,-10.91171,-83.33673,-179.3435,0.7439714,0.6622021,0.06723178,0.0589489
19865,3.471986,-0.541104,-5.004419,0,0,0,9.993754,-0.3735088,-1.254606,61.5,-7.5,-0.5,-11.26855,-83.19855,-178.5076,0.7449797,0.6616092,0.0648075,0.05548479
19877,3.472008,-0.5409988,-5.004403,0,0,0,9.816577,-0.708709,-1.173201,64.125,-13.625,3.875,-12.43116,-82.99033,-176.8379,0.7463044,0.6606488,0.06289139,0.05116318
19888,3.472009,-0.5408452,-5.004436,0,0,0,9.495743,-0.9816577,-1.340801,58.5,-17.625,6.25,-14.04597,-82.68835,-174.7774,0.7480286,0.6591256,0.0618272,0.04673564
19899,3.471968,-0.5406628,-5.00445,0,0,0,9.557994,-1.201932,-1.676001,50.75,-17.25,6.25,-15.63297,-82.34658,-172.8516,0.7498595,0.657335,0.06151137,0.04287081
19911,3.471875,-0.5404808,-5.004357,0,0,0,10.12305,-1.182778,-2.092607,39.5,-11.75,7.25,-17.07394,-82.02917,-171.2167,0.7514516,0.6556514,0.06198627,0.03999474
19922,3.471734,-0.5403458,-5.004095,0,0,0,11.1047,-0.9625034,-2.533156,20,-0.5,12.875,-18.68755,-81.82826,-169.6736,0.7522093,0.6546566,0.0640379,0.03879642
19934,3.471583,-0.5402634,-5.003696,0,0,0,11.88045,-0.708709,-2.638505,1.25,12,21.875,-20.9855,-81.77602,-167.7046,0.7518401,0.6546789,0.06795409,0.03891433
19945,3.471483,-0.5402361,-5.003314,0,0,0,11.85651,-0.5028003,-2.25063,-9.375,22.75,32.25,-24.27732,-81.86597,-164.8925,0.7502859,0.6558522,0.07328071,0.03948265
19957,3.471445,-0.5402637,-5.003098,0,0,0,10.79823,-0.3112573,-1.599384,-1.125,26.125,38.25,-28.462,-82.01978,-161.1146,0.747994,0.657868,0.07863848,0.03912521
19969,3.471497,-0.5403038,-5.003155,0,0,0,9.423914,-0.3208345,-0.8475776,28.375,21.5,38.875,-32.60099,-82.1409,-156.9705,0.7458442,0.6601259,0.0814667,0.03624342
19981,3.471601,-0.540304,-5.003336,0,0,0,8.719994,-0.641669,-0.4597031,58.75,11.25,35.125,-36.53534,-82.14188,-152.6224,0.7443023,0.6620845,0.08196102,0.03067244
19992,3.471686,-0.5402676,-5.003471,0,0,0,8.959422,-0.9289834,-0.6177261,69.25,3.125,31.5,-39.84605,-81.99236,-148.7497,0.7435679,0.6632268,0.08156705,0.02415834
20005,3.471705,-0.5402053,-5.003468,0,0,0,9.687285,-1.101372,-1.110949,60.375,-0.125,29.625,-42.69072,-81.70422,-145.4108,0.7434424,0.6635432,0.08175604,0.01788209
20017,3.471674,-0.5401749,-5.003326,0,0,0,10.43909,-1.087006,-1.446149,47.625,3.125,28.25,-44.88881,-81.45528,-142.9333,0.7432697,0.6637297,0.0826404,0.01355148
20028,3.471621,-0.540199,-5.003117,0,0,0,10.87006,-0.8667319,-1.570652,49.125,8.75,25.125,-46.73713,-81.30338,-140.7948,0.742777,0.6643209,0.08285391,0.009766096
20040,3.471581,-0.5402603,-5.002907,0,0,0,10.95147,-0.708709,-1.450938,68.875,13.125,19.875,-48.30518,-81.26241,-138.6877,0.7419548,0.6655249,0.0809589,0.005037491
20051,3.471577,-0.5403284,-5.00273,0,0,0,10.77908,-0.7134976,-1.168412,102,14.625,11.25,-49.52092,-81.32745,-136.4985,0.7409049,0.6673154,0.07580953,-0.001768073
20063,3.471612,-0.540422,-5.0026,0,0,0,10.50134,-0.5937832,-0.8475776,144.75,12.5,0.375,-50.04959,-81.50648,-134.3934,0.7397894,0.6694813,0.06614219,-0.01147329
20074,3.471659,-0.5404334,-5.002494,0,0,0,10.35769,-1.058275,-0.7326519,163.125,9.125,-6.125,-50.33414,-81.66593,-132.3306,0.7387551,0.6713386,0.05517728,-0.0223813
20085,3.471668,-0.5402715,-5.002388,0,0,0,10.21403,-2.087818,-0.933772,127.375,8.5,-9.25,-50.89701,-81.7162,-130.4262,0.7378807,0.6725453,0.04740166,-0.03111494
20097,3.471634,-0.5400543,-5.002294,0,0,0,10.08953,-2.446961,-1.154046,53,12.375,-9.5,-51.7286,-81.73592,-129.2288,0.7371354,0.6733529,0.04562771,-0.03384339
20108,3.471591,-0.5398753,-5.002185,0,0,0,10.18051,-2.174013,-1.201932,-39.125,19.375,-6.75,-53.00143,-81.81201,-128.8018,0.736226,0.6742042,0.05093279,-0.02873724
20120,3.471585,-0.5397793,-5.002025,0,0,0,10.57317,-1.728675,-1.010389,-110.25,24.625,-2.875,-54.72829,-81.96314,-128.8392,0.7348863,0.6751668,0.06150105,-0.01758996
20131,3.471607,-0.5397992,-5.001799,0,0,0,11.03766,-1.063064,-0.8140576,-153.75,26.25,0.875,-56.58471,-82.18475,-129.3399,0.7331008,0.6759397,0.07525489,-0.002339927
20143,3.471623,-0.5399395,-5.001501,0,0,0,11.58356,-0.3447773,-0.7661719,-159,24.75,4.625,-58.18373,-82.43262,-130.1345,0.7311184,0.6762964,0.08893402,0.01340981
20154,3.471631,-0.5400549,-5.001122,0,0,0,11.99538,-0.5123774,-0.8332119,-147.5,22,7.125,-59.8665,-82.61382,-130.723,0.72903,0.6762252,0.1022285,0.02800227
20166,3.471626,-0.5401148,-5.000718,0,0,0,12.13425,-0.7996919,-0.967292,-133,19.125,5.5,-61.33493,-82.74737,-131.3225,0.727039,0.6757419,0.1144285,0.04115167
20177,3.471586,-0.540174,-5.00031,0,0,0,12.05763,-0.7230747,-1.139681,-119.375,18.375,3,-62.44667,-82.89207,-132.1343,0.7250848,0.6749979,0.1255331,0.05358491
20189,3.471523,-0.5402392,-4.999872,-0.004577858,-0.004765753,0.03197566,12.06242,-0.641669,-1.216298,-111.5,19.375,2.5,-63.55638,-83.05519,-132.9085,0.7229014,0.6741694,0.1362855,0.06584463
20201,3.471411,-0.5404099,-4.999042,-0.008529327,-0.01293447,0.06291092,12.10552,-0.3543545,-1.072641,-105.375,19.375,4.5,-64.71507,-83.22934,-133.4872,0.7205683,0.6734045,0.1461118,0.07719484
20212,3.471263,-0.5407411,-4.997884,-0.01134766,-0.02546367,0.08905802,11.8182,0.004788574,-0.8188462,-82.875,16.5,6.125,-65.69837,-83.40807,-133.9227,0.7184138,0.6728142,0.1539443,0.0866248
20225,3.471051,-0.5413713,-4.996265,-0.01457287,-0.04329595,0.1111684,11.3585,0.3256231,-0.6608232,-34.75,10.625,5,-66.01308,-83.60239,-134.4918,0.7169333,0.6725317,0.1582772,0.09303861
20237,3.470827,-0.5421746,-4.994561,-0.01672774,-0.06011428,0.1275272,11.07118,0.3878745,-0.5602632,27.125,2.625,2,-65.37586,-83.74414,-135.1073,0.7168607,0.672747,0.1571929,0.0938767
20248,3.47057,-0.5431083,-4.992678,-0.01963952,-0.07136882,0.1439243,11.05682,0.05267432,-0.7709605,80.875,-3.875,-1.125,-64.03848,-83.79465,-135.7144,0.7180146,0.6731979,0.1521346,0.09008145
20260,3.470268,-0.544073,-4.990615,-0.02346438,-0.07481261,0.1599646,10.98499,-0.4788574,-1.053486,105.625,-5.625,-3.25,-62.62808,-83.76804,-136.0829,0.7196555,0.6736844,0.1455834,0.08397
20271,3.46991,-0.5450015,-4.98841,-0.02779143,-0.07214962,0.17141,10.58275,-0.900252,-1.221087,102.125,-3.5,-4,-61.5708,-83.70571,-136.1446,0.7211378,0.6741024,0.1396023,0.07783025
20283,3.469498,-0.5458853,-4.986078,-0.03124891,-0.06700155,0.1767349,10.08474,-1.072641,-1.168412,76.5,0.25,-3.75,-61.03413,-83.65464,-135.9995,0.722052,0.6744226,0.135617,0.07350618
20294,3.469075,-0.5467061,-4.983791,-0.03277466,-0.06361499,0.1772681,9.744749,-0.967292,-0.9625034,51.375,2.875,-4.125,-60.77732,-83.65869,-135.9142,0.7223938,0.6747017,0.1334767,0.07147671
20306,3.468648,-0.5475585,-4.981504,-0.03264802,-0.06527355,0.175069,9.581937,-0.6033604,-0.708709,38.25,2.625,-5.25,-60.27604,-83.73387,-136.2405,0.7225124,0.6749446,0.131876,0.07095311
20317,3.468217,-0.5485085,-4.979181,-0.03246912,-0.07142027,0.1746999,9.754326,-0.2729487,-0.6225147,39.25,-0.25,-5,-59.28288,-83.82543,-137.0426,0.7228312,0.6750229,0.1298991,0.07060693
20329,3.467801,-0.5494755,-4.976918,-0.03282066,-0.07629093,0.1785601,10.07516,-0.3447773,-0.7182862,41.5,-3.25,-3.375,-58.23253,-83.85299,-137.8817,0.7234011,0.6748385,0.1280831,0.0698474
20340,3.467358,-0.5504892,-4.974529,-0.03414083,-0.07816213,0.1841737,10.17572,-0.5554746,-0.8810977,39.625,-4.875,-2.375,-57.20545,-83.81753,-138.7161,0.724167,0.67438,0.1266732,0.06890345
20351,3.466889,-0.5515026,-4.972078,-0.03589895,-0.07752311,0.187459,9.9746,-0.7134976,-0.967292,35.625,-4.5,-3.125,-56.24791,-83.76331,-139.5311,0.7249361,0.6738174,0.1256615,0.06816922
20363,3.466411,-0.5524821,-4.969665,-0.03710046,-0.0760419,0.1873996,9.716018,-0.7613833,-0.9385605,32.125,-3.5,-5.375,-55.28403,-83.73231,-140.3981,0.7255924,0.6733036,0.1247978,0.06784844
20374,3.465906,-0.5534689,-4.967261,-0.03852644,-0.07532012,0.183429,9.423914,-0.6608232,-0.9241948,30.375,-2.25,-8.75,-54.01263,-83.74636,-141.5933,0.7262084,0.6728251,0.1237007,0.06801423
20386,3.465393,-0.5544482,-4.964951,-0.03961318,-0.07564862,0.1785107,9.356874,-0.5602632,-0.8810977,31.375,-1.5,-11.25,-52.51943,-83.79787,-142.9971,0.7267696,0.672447,0.1222508,0.06837913
20397,3.464875,-0.5554519,-4.962623,-0.03916731,-0.07578795,0.1757383,9.534052,-0.5889946,-0.7949033,30.5,-2.375,-12.75,-50.90103,-83.85889,-144.5336,0.7273147,0.6720779,0.1207385,0.0688973
20410,3.464344,-0.5564963,-4.960222,-0.03848459,-0.07569493,0.1740391,9.620246,-0.584206,-0.8044805,24.75,-3.875,-13,-49.07563,-83.90118,-146.3523,0.7279492,0.6714823,0.1196354,0.06992028
20421,3.463844,-0.5574674,-4.957996,-0.03861921,-0.07504498,0.17198,9.577148,-0.5794175,-0.8858863,16.75,-4.25,-12.375,-47.36248,-83.91472,-148.1628,0.728559,0.6707197,0.1192978,0.07144915
20433,3.463329,-0.5584302,-4.955771,-0.0391888,-0.07332357,0.1694334,9.534052,-0.6177261,-0.9529263,8.375,-3.625,-12.25,-45.71718,-83.91592,-150.017,0.7290958,0.6698335,0.1196745,0.07362301
20445,3.462754,-0.5594747,-4.95334,-0.03946809,-0.07163096,0.1667643,9.548417,-0.5746289,-0.9433491,5.75,-2.875,-13.5,-43.7864,-83.93418,-152.2174,0.7295916,0.668891,0.120172,0.07641832
20457,3.462234,-0.5604262,-4.951138,-0.03905422,-0.07151973,0.1655064,9.648977,-0.450126,-0.8858863,11.25,-2.75,-15.875,-41.68027,-83.97758,-154.4952,0.7300494,0.6681648,0.119897,0.07879259
20469,3.461733,-0.5613872,-4.948997,-0.0386215,-0.07400339,0.1647793,9.701652,-0.2154858,-0.8427891,27.25,-3.625,-18.125,-39.06603,-84.0328,-157.0688,0.7307085,0.6676115,0.1180549,0.0801445
20480,3.461226,-0.5624144,-4.946864,-0.03875576,-0.07862166,0.1632763,9.648977,0.004788574,-0.8475776,52.25,-5,-20.25,-35.83847,-84.0788,-159.9287,0.7317494,0.6672286,0.113978,0.07973683
20491,3.46072,-0.5634877,-4.944805,-0.03941721,-0.0834909,0.1601768,9.519686,0.09098291,-0.8858863,84.375,-6.375,-21.75,-32.32554,-84.09352,-162.6661,0.7331964,0.6670698,0.1074201,0.07682366
20503,3.460197,-0.5646372,-4.942753,-0.03955778,-0.08706378,0.1553956,9.395183,0.0191543,-0.8810977,110.625,-7.125,-22.25,-28.80013,-84.08014,-165.0471,0.7348981,0.6671298,0.09873033,0.07151992
20514,3.459691,-0.5657622,-4.940831,-0.03925646,-0.08720375,0.1489966,9.251526,-0.2106973,-0.9098291,130,-7.125,-22.5,-25.7328,-84.0404,-166.7441,0.73662,0.6673182,0.08900197,0.0644686
20526,3.459182,-0.5668484,-4.938982,-0.03915211,-0.08350006,0.1421714,9.208428,-0.4788574,-0.9912349,136.125,-6.125,-22.75,-23.08947,-83.98412,-167.9239,0.7382453,0.6675024,0.07897051,0.05655291
20537,3.458671,-0.5678337,-4.937221,-0.03961362,-0.07648987,0.1367103,9.294622,-0.7182862,-1.091795,126.75,-3.5,-22.375,-20.95704,-83.93589,-168.7262,0.7395296,0.6676651,0.06997927,0.04921571
20549,3.458133,-0.5687354,-4.935452,-0.04028802,-0.06750118,0.1323976,9.390394,-0.8380005,-1.130104,103.875,0.375,-20.25,-19.29901,-83.92223,-169.3114,0.7403302,0.6679099,0.06270543,0.04330882
20560,3.457624,-0.5694793,-4.933814,-0.03999244,-0.05840019,0.1286751,9.428702,-0.8858863,-1.053486,72.375,4.75,-16,-18.41638,-83.96398,-169.5749,0.7404656,0.6683539,0.05847489,0.03993195
20572,3.457118,-0.5701086,-4.932184,-0.03869312,-0.04812564,0.1246334,9.419126,-0.9625034,-0.9720806,33.125,7.75,-12.125,-18.1877,-84.0452,-169.6836,0.7400852,0.6688888,0.05750953,0.03942522
20583,3.456625,-0.570612,-4.930619,-0.03755496,-0.03840432,0.1193578,9.328143,-0.9098291,-0.9577149,-4.5,10.125,-8.375,-18.41668,-84.14834,-169.8308,0.739333,0.6693805,0.05969272,0.04187126
20595,3.456152,-0.5710056,-4.929173,-0.03681928,-0.03060007,0.1124662,9.198852,-0.7613833,-0.9433491,-33.125,12.375,-5.25,-18.88084,-84.27227,-170.1074,0.7382739,0.6698307,0.06411552,0.04655924
20606,3.455683,-0.5713233,-4.927819,-0.03625795,-0.02458674,0.1047899,9.146177,-0.6081489,-0.9146177,-53,14.5,-2.75,-19.4984,-84.42303,-170.4936,0.73689,0.6702826,0.07012089,0.05289207
20618,3.455174,-0.5716193,-4.926416,-0.03578909,-0.02078975,0.09846808,9.3042,-0.3974517,-0.8810977,-60.625,16,-1.375,-20.05346,-84.61828,-171.1565,0.7350973,0.670803,0.07726954,0.06070359
20630,3.454719,-0.5718694,-4.925193,-0.03572487,-0.01964479,0.0961068,9.567572,-0.2059087,-0.8715205,-52.75,16.125,-1.25,-20.26114,-84.79929,-171.9388,0.7334853,0.6712731,0.0829106,0.06721334
20641,3.454251,-0.5721242,-4.923958,-0.03589904,-0.01955321,0.09476965,9.653766,-0.1053486,-0.8523662,-32,14.875,-2.125,-20.15366,-84.9718,-172.7891,0.7320626,0.6717876,0.08695563,0.0722819
20653,3.453781,-0.5723867,-4.922748,-0.0354872,-0.01981631,0.09134988,9.50532,-0.07182861,-0.7661719,-4.5,12.25,-4.125,-19.63922,-85.12312,-173.6929,0.7310076,0.6723735,0.08876218,0.07525438
20665,3.453285,-0.5726606,-4.921526,-0.03429064,-0.01893459,0.08443978,9.289834,-0.1436572,-0.6991318,29.375,8.125,-8,-18.48564,-85.23684,-174.7784,0.7305257,0.6730112,0.08763047,0.07555888
20677,3.452837,-0.5728691,-4.920507,-0.03370158,-0.01567487,0.07657578,9.17012,-0.3016802,-0.7613833,49.25,4.875,-10.125,-17.33694,-85.28233,-175.5976,0.7305929,0.6734304,0.08506593,0.07408955
20689,3.452389,-0.5730072,-4.919582,-0.03384247,-0.01044705,0.07006983,9.261103,-0.4309717,-0.8523662,52.75,3.75,-9.75,-16.48794,-85.29505,-176.0724,0.7308363,0.6737057,0.08242926,0.07214186
20700,3.451946,-0.5730761,-4.918735,-0.03451286,-0.005369812,0.06600675,9.433492,-0.4213945,-0.9050406,44.125,3.75,-6.75,-16.10369,-85.29877,-176.2055,0.7310058,0.6738735,0.0807568,0.07073519
20712,3.451502,-0.5729726,-4.917352,-0.03454422,0.008052828,0.1075018,12.95309,-1.106161,-1.278549,32.625,5.125,-2.375,-17.14021,-85.30748,-175.0652,0.7309232,0.6740971,0.08065234,0.06956787
20723,3.450874,-0.5729205,-4.915176,-0.0468085,0.003882466,0.1622447,13.76236,0.4166059,-1.972893,46.5,3,-2.25,-15.98988,-85.2338,-175.9287,0.7316298,0.6737247,0.07847084,0.06822872
20736,3.449963,-0.57316,-4.913098,-0.06625115,-0.01740102,0.1509851,8.849285,1.78135,-1.867544,105,-0.625,-4.5,-11.44817,-85.01937,-179.3805,0.7338413,0.6727329,0.06988731,0.06342808
20747,3.449077,-0.5735006,-4.911291,-0.06851719,-0.02634718,0.1397865,8.887594,0.7182862,-0.8523662,150.25,-6.875,-6.625,-9.083404,-84.89178,179.8725,0.735538,0.6727091,0.0591802,0.0542598
20759,3.448232,-0.5737435,-4.909478,-0.063933,-0.01838299,0.1371995,9.581937,-0.6608232,-0.6033604,181.75,-10.875,-9.625,-8.783015,-84.76089,-178.3466,0.7371851,0.6728173,0.04685928,0.04098072
20770,3.447385,-0.5738971,-4.907784,-0.06610865,-0.01198029,0.1321067,9.332932,-0.5219546,-1.096583,191.875,-10.75,-11.875,-7.871373,-84.56236,-177.1086,0.7390376,0.6722503,0.03383105,0.02753965
20781,3.446449,-0.573987,-4.906157,-0.07193752,-0.006913192,0.1251936,9.17012,-0.4213945,-1.369532,183.5,-7.875,-11.875,-6.750961,-84.35954,-176.158,0.7406655,0.6713801,0.02113831,0.01471521
20793,3.44548,-0.5739422,-4.904581,-0.07284234,0.00336282,0.1184013,9.222795,-0.8523662,-1.000812,169,-4.375,-11.5,-6.406071,-84.26128,-174.5721,0.7414029,0.6709862,0.009677262,0.0023793
20804,3.44461,-0.5737215,-4.903172,-0.06890357,0.01748269,0.111534,9.222795,-1.225875,-0.5889946,151.875,-1.125,-12,-6.641002,-84.26995,-172.7188,0.7412947,0.6711292,0.0003378734,-0.008229043
20816,3.443799,-0.5732797,-4.901828,-0.06243468,0.03402022,0.1035091,9.165331,-1.393475,-0.3495659,123.25,1.75,-12.125,-7.208037,-84.34853,-170.8574,0.7406517,0.6716411,-0.006965287,-0.0168795
20827,3.443095,-0.5726197,-4.900577,-0.05378631,0.05045807,0.09566851,9.198852,-1.383898,-0.1436572,83.25,5.75,-10.375,-8.129814,-84.50463,-169.1571,0.7395298,0.672662,-0.01113432,-0.02230779
20839,3.442476,-0.5716574,-4.899346,-0.04402779,0.06841946,0.08750294,9.218005,-1.422207,-0.06704004,21.125,12.5,-6.625,-10.01488,-84.75918,-167.3121,0.7378713,0.6744791,-0.01011269,-0.02283885
20851,3.44202,-0.5706514,-4.898308,-0.03556135,0.07843454,0.08092544,9.289834,-0.9385605,-0.09098291,-17.75,16,-4.25,-11.44033,-85.03229,-166.4279,0.7362376,0.6764028,-0.006505393,-0.01977725
20862,3.441639,-0.5696306,-4.897317,-0.02913395,0.07802933,0.07577682,9.409549,-0.1197144,-0.2633716,-14.75,13.125,-5.375,-11.09293,-85.27445,-167.2935,0.7349611,0.6779101,-0.003937013,-0.01595925
20874,3.441311,-0.5686831,-4.896383,-0.02502441,0.07237276,0.07135779,9.457435,0.3064688,-0.4357603,14.25,7.25,-8,-9.191121,-85.42847,-169.3351,0.734266,0.6787055,-0.00422408,-0.01394891
20886,3.441024,-0.5677167,-4.895447,-0.02033864,0.06851382,0.06633466,9.43828,0.1771773,-0.4022402,39.75,2.375,-8.875,-7.060157,-85.52048,-171.255,0.7338631,0.6791174,-0.006588697,-0.01418778
20898,3.440841,-0.5668474,-4.89466,-0.0143114,0.06797739,0.06154314,9.428702,-0.03352002,-0.2442173,38.25,1.375,-7.125,-5.838422,-85.60123,-172.3039,0.7334405,0.6795455,-0.008256624,-0.014652
20909,3.440755,-0.5659869,-4.893917,-0.006579359,0.06605083,0.05702954,9.467011,0.09098291,-0.1149258,30.75,0.875,-4.625,-4.77124,-85.6922,-173.2946,0.7329497,0.6800634,-0.009269101,-0.01458359
20921,3.440833,-0.5652269,-4.893219,0.005947043,0.05838689,0.05364434,9.581937,0.5650518,0.2442173,32.625,-3,-2,-3.166548,-85.78815,-174.802,0.7324336,0.6806028,-0.01063135,-0.01442144
20932,3.44113,-0.5646263,-4.892558,0.02308812,0.04664408,0.05132543,9.687285,0.9241948,0.6033604,37.5,-8.25,1.625,-1.452809,-85.86365,-176.3601,0.7320116,0.6810234,-0.01235263,-0.01462016
20943,3.441587,-0.5641311,-4.891919,0.03455136,0.03741129,0.04831181,9.60588,0.6943433,0.1436572,27.25,-11.125,8,-1.250407,-85.82149,-176.5401,0.7322627,0.680748,-0.01256457,-0.01468327
20955,3.442051,-0.5637376,-4.891347,0.03608236,0.03061269,0.0444341,9.476588,0.483646,-0.6129375,13.625,-10.875,13.75,-2.366302,-85.6613,-175.5797,0.7332065,0.6797665,-0.01108092,-0.0142496
20966,3.442483,-0.5634158,-4.890827,0.03319062,0.02471887,0.03994357,9.40476,0.3735088,-0.9816577,17.375,-11.25,16.5,-3.982606,-85.43331,-174.073,0.7345107,0.6783766,-0.009554751,-0.01442123
20978,3.442908,-0.5631157,-4.890381,0.03300658,0.02330214,0.03466679,9.352086,0.004788574,-0.7901148,30.625,-12.75,16.75,-6.130885,-85.2121,-171.8607,0.7356882,0.6770741,-0.008712884,-0.0160501
20989,3.443403,-0.5627511,-4.890007,0.03772325,0.02779045,0.02853665,9.318565,-0.4788574,-0.4213945,37.125,-14.25,16.375,-8.968482,-85.01123,-168.869,0.7366132,0.6760088,-0.007960322,-0.01870075
21001,3.443981,-0.5622709,-4.889723,0.04459203,0.03704942,0.02186491,9.275469,-0.8954634,-0.2537944,34.5,-15.25,15.5,-12.10099,-84.80623,-165.6145,0.7374261,0.6750544,-0.006742424,-0.02142129
21012,3.444618,-0.5616111,-4.889532,0.04871317,0.0504587,0.01463471,9.20364,-1.268972,-0.4788574,28.125,-15.625,13.125,-15.09771,-84.54185,-162.5738,0.7384795,0.6738385,-0.004923074,-0.02377884
21024,3.445225,-0.5607115,-4.889451,0.04707551,0.0697012,0.006318426,9.045617,-1.805292,-0.9289834,16.75,-14,9.625,-17.91801,-84.21152,-159.8519,0.7398232,0.6723189,-0.002099513,-0.02538665
21035,3.44575,-0.5595101,-4.889488,0.0401861,0.09204619,-0.002889723,8.921114,-2.087818,-1.359955,1.75,-9.75,5.5,-20.28592,-83.86275,-157.776,0.7412696,0.6707143,0.001781292,-0.02566315
21046,3.44613,-0.557936,-4.889653,0.02922302,0.1211023,-0.0126699,8.801399,-2.657659,-1.704732,-14.875,-3.75,-1.25,-22.45135,-83.53703,-156.1113,0.7425718,0.6692821,0.006828272,-0.02453833
21058,3.446404,-0.5558513,-4.889974,0.01978996,0.150749,-0.02323147,8.796611,-2.581042,-1.594595,-27.375,2,-8.625,-24.00341,-83.32903,-155.261,0.7433693,0.6684194,0.01244568,-0.02150768
21070,3.446607,-0.5538072,-4.890365,0.0155386,0.1561921,-0.0298345,9.174909,-0.8284234,-1.307281,-18.25,3.375,-15.5,-22.74323,-83.35423,-157.0751,0.7436908,0.6681434,0.0147859,-0.0170242
21082,3.446901,-0.551863,-4.890819,0.02246774,0.1484164,-0.0346937,9.443069,0.2346401,-0.4692803,7.25,-0.75,-18.75,-20.03248,-83.52877,-160.0082,0.7434808,0.6684783,0.01390876,-0.01340794
21093,3.447468,-0.5500998,-4.891322,0.04332652,0.134706,-0.03840453,9.653766,0.7565947,0.5937832,41.25,-9.375,-19.5,-16.62445,-83.75939,-163.1916,0.7429208,0.6691943,0.009937706,-0.0122043
21106,3.448416,-0.5483729,-4.891929,0.06523953,0.1188869,-0.04183253,9.687285,0.8715205,0.4980117,50.125,-16,-15.375,-12.80002,-83.86509,-166.6419,0.7429424,0.6692282,0.005123724,-0.01200172
21118,3.449492,-0.5469412,-4.892537,0.08026019,0.1067535,-0.04532078,9.615458,0.7278633,0.1005601,28.625,-17.75,-7.625,-10.27586,-83.83086,-169.1148,0.7434749,0.6686698,0.003231665,-0.01074145
21129,3.450648,-0.5456747,-4.893183,0.08855164,0.09706305,-0.04947035,9.500531,0.5889946,-0.4070288,27.875,-20.625,-2.875,-8.49379,-83.66003,-170.86,0.7446536,0.6673735,0.002011754,-0.009975198
21141,3.451767,-0.5444363,-4.893896,0.08656696,0.09578391,-0.05515887,9.275469,-0.05746289,-1.225875,36.25,-22.125,-1.5,-7.696265,-83.32458,-171.5095,0.746649,0.6651318,0.0009034078,-0.01068859
21152,3.452817,-0.5431448,-4.894691,0.08159484,0.1003364,-0.06174756,9.160542,-0.5219546,-1.498824,38,-20.875,-1.5,-7.545332,-82.95911,-171.4868,0.7487416,0.662753,0.0001036669,-0.01202604
21164,3.453867,-0.5417769,-4.895585,0.08022308,0.1044945,-0.06825013,9.20364,-0.4884346,-1.268972,45.125,-19.625,-3.375,-7.224939,-82.65485,-171.5356,0.7504835,0.6607434,-0.001450612,-0.01381478
21175,3.454918,-0.5403768,-4.896552,0.08083554,0.1077512,-0.07446316,9.23716,-0.4213945,-1.163624,54.25,-19.25,-5.25,-6.681594,-82.38776,-171.6894,0.752013,0.6589388,-0.00390608,-0.01615309
21187,3.455965,-0.5389233,-4.897605,0.08025561,0.1113852,-0.08071648,9.218005,-0.4549146,-1.292915,50.25,-17.125,-5.25,-6.209651,-82.13229,-171.8222,0.753466,0.6572075,-0.006041074,-0.01819066
21198,3.456976,-0.537438,-4.898724,0.07855476,0.1153846,-0.08690339,9.198852,-0.4932232,-1.412629,33.875,-13.125,-3.5,-6.00123,-81.9147,-171.9083,0.7547042,0.6557559,-0.006751504,-0.0189823
21209,3.457996,-0.5358939,-4.899947,0.07769865,0.1176303,-0.09312215,9.213217,-0.3495659,-1.379109,18.5,-9.25,-1.875,-5.84343,-81.75462,-172.1465,0.7556417,0.6546955,-0.006308562,-0.01843223
21221,3.458997,-0.5343818,-4.901226,0.07715452,0.1165348,-0.09856898,9.270679,-0.08619434,-1.393475,16.625,-6.875,-1.375,-5.488609,-81.63468,-172.6089,0.7563745,0.6538782,-0.005923294,-0.0174923
21232,3.459981,-0.5328929,-4.902576,0.07549516,0.1142484,-0.1036652,9.285046,0.009577149,-1.503612,20.25,-4.875,-0.625,-5.127084,-81.52674,-173.0333,0.757031,0.6531364,-0.005817155,-0.01682288
21244,3.460946,-0.5314342,-4.903985,0.07463686,0.1129301,-0.1090431,9.265891,-0.05746289,-1.450938,24,-3.5,-0.25,-4.910498,-81.44572,-173.2634,0.7575124,0.6525835,-0.005885478,-0.01658734
21255,3.461925,-0.5299523,-4.90549,0.07476754,0.1131838,-0.1149253,9.241948,-0.1771773,-1.374321,27.125,-1.75,0.25,-4.896852,-81.39687,-173.2489,0.757786,0.6522593,-0.006027303,-0.01679092
21267,3.462911,-0.5284913,-4.907051,0.07616851,0.1128361,-0.1205613,9.270679,-0.1292915,-1.283338,28.5,-0.5,0.625,-4.889267,-81.3811,-173.2118,0.7578696,0.6521521,-0.006278582,-0.01708916
21278,3.464016,-0.526933,-4.908803,0.07987954,0.1126233,-0.1265871,9.294622,-0.1388687,-1.120526,29.375,0.5,1.375,-4.992285,-81.40467,-173.0495,0.7577177,0.6523135,-0.00653629,-0.0175615
21291,3.465131,-0.5254195,-4.910555,0.08440454,0.1145657,-0.1326609,9.280257,-0.3064688,-1.029544,28.5,1.375,1.875,-5.331972,-81.4479,-172.6632,0.7574319,0.6526293,-0.006518926,-0.01815288
21302,3.466268,-0.5238833,-4.912353,0.08788816,0.1188255,-0.1390597,9.232371,-0.5028003,-1.082218,27.875,2,1.625,-5.843494,-81.48396,-172.1119,0.7571676,0.6529179,-0.006305073,-0.01885757
21313,3.467451,-0.5222565,-4.914266,0.09009306,0.1238328,-0.1456093,9.213217,-0.5698403,-1.173201,26.75,2.875,0.875,-6.35634,-81.51536,-171.5722,0.7569278,0.6531806,-0.006016727,-0.01947653
21326,3.468827,-0.5204168,-4.91648,0.09480412,0.1267077,-0.1524744,9.265891,-0.3878745,-1.015178,24.75,3.625,0.375,-6.686251,-81.594,-171.2435,0.7564443,0.6537358,-0.005776767,-0.01970249
21337,3.470088,-0.5188448,-4.918431,0.1020718,0.1272305,-0.157948,9.33772,-0.225063,-0.7470176,25.375,3.25,0.5,-6.845354,-81.69875,-171.0793,0.7558322,0.6544409,-0.005752934,-0.01979157
21349,3.471509,-0.5171729,-4.920574,0.1083732,0.1275174,-0.1634471,9.347297,-0.2106973,-0.8427891,24.75,2.875,1,-7.021391,-81.78676,-170.9067,0.7553144,0.6550377,-0.00565373,-0.01984902
21360,3.472952,-0.5155218,-4.92277,0.1109677,0.1269751,-0.1688453,9.313777,-0.158023,-1.115738,22.25,3.375,1.625,-7.152703,-81.83492,-170.8132,0.7550319,0.655371,-0.005365581,-0.01967326
21371,3.47439,-0.5138941,-4.925006,0.1120917,0.126912,-0.1744006,9.280257,-0.2011201,-1.216298,24.625,3.875,1.75,-7.328507,-81.87018,-170.6441,0.754812,0.6556232,-0.005206231,-0.01975098
21383,3.475893,-0.5121884,-4.927379,0.1144038,0.1297967,-0.1805317,9.256314,-0.4309717,-1.106161,28.125,4.125,1.5,-7.765078,-81.91962,-170.1653,0.7544681,0.6560009,-0.00511653,-0.02035981
21395,3.477459,-0.5104025,-4.929846,0.1187131,0.135447,-0.1871106,9.241948,-0.6464576,-0.9289834,28.25,4.625,0.5,-8.393176,-81.99786,-169.4899,0.7539318,0.6565942,-0.004928305,-0.02113261
21406,3.479031,-0.5085981,-4.932306,0.1237645,0.1420037,-0.1935611,9.241948,-0.742229,-0.8380005,28.375,4.375,-1,-8.978539,-82.08183,-168.8549,0.753364,0.6572225,-0.004806879,-0.02186622
21417,3.480697,-0.5066601,-4.9349,0.1285865,0.1496149,-0.2002679,9.227583,-0.8236348,-0.8427891,28.375,4.25,-2.875,-9.486882,-82.16403,-168.2936,0.7528133,0.6578305,-0.004778022,-0.02254779
21429,3.482476,-0.5045839,-4.937648,0.1340578,0.1564331,-0.2070577,9.241948,-0.7518061,-0.7901148,25.625,4.25,-4.5,-9.776487,-82.26109,-167.9857,0.7522181,0.6585026,-0.004756683,-0.02279557
21440,3.484288,-0.5025278,-4.940387,0.140925,0.1599543,-0.2131289,9.3042,-0.5028003,-0.6656118,22,4.125,-5.5,-9.700512,-82.38181,-168.0923,0.7515556,0.6592722,-0.00478352,-0.0223944
21452,3.48617,-0.5004754,-4.943208,0.1458504,0.1590186,-0.2185246,9.347297,-0.1484458,-0.8236348,18.375,4,-5.25,-9.190607,-82.48524,-168.684,0.7510634,0.6598676,-0.004838202,-0.02133455
21463,3.488139,-0.4984398,-4.946172,0.1485298,0.1535489,-0.2236022,9.366451,0.2059087,-1.010389,19.5,3.5,-3.875,-8.323304,-82.5593,-169.6254,0.7507759,0.6602313,-0.005176989,-0.02008366
21475,3.490072,-0.4965158,-4.949107,0.1507196,0.150088,-0.2289299,9.328143,0.07661719,-1.024755,23.125,3.375,-2.5,-7.774895,-82.6167,-170.1987,0.7505233,0.6605352,-0.005521537,-0.01943325
21486,3.492087,-0.4945225,-4.952166,0.1547987,0.1531307,-0.2349792,9.289834,-0.4213945,-0.8475776,25,3.25,-2.25,-7.893052,-82.68453,-170.0762,0.7501222,0.6609889,-0.005519315,-0.01949067
21498,3.494262,-0.4923453,-4.95542,0.1617382,0.161878,-0.2420011,9.251526,-0.8380005,-0.6081489,26.625,2.375,-3.875,-8.418074,-82.77094,-169.5186,0.7495597,0.6616119,-0.005387464,-0.02002562
21509,3.496384,-0.4902712,-4.958519,0.1698439,0.1660209,-0.2479736,9.318565,-0.5123774,-0.4788574,27,0.875,-5.375,-8.362313,-82.86304,-169.541,0.7490366,0.6621988,-0.005715862,-0.02010837
21520,3.498675,-0.4881519,-4.961797,0.1767406,0.1634973,-0.2529255,9.409549,0.02394287,-0.6177261,25.25,-0.5,-4.875,-7.622837,-82.93192,-170.2744,0.7487325,0.6625541,-0.006376301,-0.01952374
21532,3.501043,-0.4860523,-4.965173,0.1809226,0.1604244,-0.2579712,9.380817,0.07182861,-0.8284234,23.875,-1.25,-3.625,-6.896943,-82.95396,-171.0139,0.7486884,0.662618,-0.006863367,-0.01887023
21544,3.503628,-0.4837933,-4.968881,0.1842423,0.1609658,-0.2641969,9.308989,-0.1963315,-0.8954634,24.375,-1.75,-3,-6.550825,-82.94843,-171.3652,0.7487565,0.6625469,-0.007088752,-0.01858056
21556,3.506046,-0.4816873,-4.972355,0.1880913,0.1638516,-0.2702738,9.285046,-0.3782974,-0.8236348,27.25,-2.375,-3.125,-6.463964,-82.94209,-171.4178,0.7487954,0.6624954,-0.007347009,-0.01874401
21567,3.508573,-0.4795153,-4.97597,0.1931857,0.1660474,-0.2763623,9.3042,-0.3160459,-0.7374405,28.5,-3,-3.125,-6.303629,-82.94314,-171.5273,0.7487968,0.6624832,-0.007762367,-0.01895441
21579,3.511188,-0.4773873,-4.979655,0.1996045,0.1624182,-0.2813085,9.409549,0.1436572,-0.6656118,28.375,-3.75,-2.375,-5.63838,-82.95597,-172.1482,0.7487782,0.662501,-0.008529655,-0.01873375
21591,3.51416,-0.4751903,-4.983686,0.2109264,0.1559116,-0.2860411,9.490954,0.3543545,-0.3639317,28.5,-6.125,-0.25,-4.912607,-82.9874,-172.8277,0.7486511,0.6626408,-0.009364339,-0.0184688
21602,3.517015,-0.4733272,-4.987395,0.2231118,0.1455875,-0.2898028,9.553205,0.7182862,-0.2346401,27.125,-8.625,3.75,-4.224691,-83.00261,-173.4974,0.7486124,0.6626865,-0.009995571,-0.01806298
21614,3.520035,-0.4715506,-4.99126,0.2297792,0.1351875,-0.2940737,9.467011,0.6895547,-0.6847661,23.625,-9.875,8.5,-3.99528,-82.92254,-173.758,0.7490938,0.6621521,-0.00994242,-0.01773026
21625,3.523001,-0.4699461,-4.995099,0.2299709,0.1244024,-0.2976339,9.452645,0.708709,-1.206721,22.875,-9.875,13.375,-4.192223,-82.75911,-173.6061,0.750026,0.6611046,-0.009438617,-0.01767673
21637,3.525968,-0.468468,-4.998978,0.2305722,0.1148702,-0.301519,9.428702,0.5985718,-1.187566,15.125,-7.875,18,-4.99163,-82.61935,-172.9547,0.7507887,0.6602658,-0.007873845,-0.01741771
21648,3.529063,-0.466915,-5.003051,0,0,0,9.285046,-0.3591431,-0.9625034,9,-6.75,20.25,-7.203588,-82.49901,-170.9684,0.7512922,0.6597132,-0.004724057,-0.01778634
21660,3.529166,-0.4668115,-5.003136,0,0,0,9.270679,-0.8427891,-0.5650518,19.25,-9.125,17.5,-9.582364,-82.39909,-168.6691,0.7515595,0.6593798,-0.002259475,-0.01927184
21671,3.529275,-0.466581,-5.003246,0,0,0,9.107868,-1.632904,-0.5075889,28.375,-11.75,12.25,-12.24375,-82.24711,-165.9558,0.7519537,0.6588502,-0.0002134737,-0.02195466
21682,3.529277,-0.4661754,-5.003384,0,0,0,8.787034,-2.801316,-1.096583,25.75,-12,5,-15.12494,-81.96029,-163.0399,0.7529164,0.6576371,0.00240281,-0.02499462
21694,3.529212,-0.4659178,-5.0035,0,0,0,8.911537,-1.905853,-1.575441,22.5,-10.375,-2,-16.12932,-81.68204,-162.0477,0.7541863,0.6561247,0.003809496,-0.02624736
21705,3.52915,-0.4658886,-5.003579,0,0,0,9.165331,-0.584206,-1.671212,22.25,-7.375,-6,-15.40581,-81.52223,-162.7983,0.75525,0.6549218,0.00362166,-0.02572347
21717,3.529068,-0.4659209,-5.003654,0,0,0,9.189274,-0.2059087,-1.819658,19.125,-3.375,-5.875,-14.40442,-81.40881,-163.8736,0.7561361,0.6539456,0.003349133,-0.02454075
21728,3.528963,-0.4660711,-5.003711,0,0,0,9.285046,0.5267432,-2.020778,18.75,1,-3.5,-12.98713,-81.34578,-165.3807,0.7568305,0.6532089,0.002686758,-0.02277128
21740,3.528902,-0.4662094,-5.003765,0,0,0,9.342508,0.4740689,-1.762195,25.625,3.125,-1.125,-11.97539,-81.33703,-166.3943,0.7570961,0.6529354,0.001792403,-0.02185422
21751,3.528936,-0.4661673,-5.003841,0,0,0,9.261103,-0.5746289,-1.144469,26,4.75,0,-12.32469,-81.39739,-166.0293,0.7566864,0.6533985,0.001934739,-0.02219184
21763,3.529039,-0.4660257,-5.003938,0,0,0,9.241948,-1.072641,-0.7661719,22,5.5,-1.5,-13.22731,-81.51466,-165.1565,0.7558498,0.6543481,0.002741752,-0.02263207
21775,3.529115,-0.4658949,-5.004031,0,0,0,9.189274,-1.101372,-0.8380005,19.625,5,-4.5,-13.82495,-81.61196,-164.6157,0.7551905,0.6551055,0.003443343,-0.02263548
21786,3.529168,-0.46579,-5.004126,0,0,0,9.17012,-0.9529263,-0.9577149,21,4.25,-7.875,-13.91581,-81.69608,-164.5627,0.7547147,0.655663,0.00360733,-0.02233507
21798,3.529206,-0.4657109,-5.004219,0,0,0,9.17012,-0.7949033,-1.043909,22.75,4.125,-10.125,-13.60951,-81.77741,-164.884,0.7543371,0.6561154,0.00330362,-0.02184739
21810,3.529262,-0.4656493,-5.004324,0,0,0,9.227583,-0.6081489,-0.9912349,25.75,4,-12.125,-12.86181,-81.88887,-165.6051,0.7538748,0.6566713,0.002347266,-0.02121964
21822,3.529338,-0.4656684,-5.004391,0,0,0,9.342508,-0.158023,-0.7805376,28.625,3.125,-12.5,-11.74697,-82.02033,-166.665,0.7533519,0.6572987,0.0009078418,-0.02045876
21833,3.529453,-0.4657186,-5.004465,0,0,0,9.376028,0.04788574,-0.5889946,26.25,2,-11,-10.49099,-82.1711,-167.8969,0.7527243,0.6580504,-0.0004684099,-0.0193811
21845,3.529541,-0.4658437,-5.004519,0,0,0,9.462223,0.5458975,-0.742229,23,1.5,-8.25,-8.906869,-82.2899,-169.5068,0.7523001,0.6585783,-0.001756058,-0.01777627
21856,3.529583,-0.4659668,-5.004578,0,0,0,9.423914,0.5075889,-1.024755,19.375,1.375,-4.375,-7.633294,-82.3477,-170.8587,0.7521497,0.6587896,-0.002401832,-0.0161669
21867,3.529638,-0.4660105,-5.004642,0,0,0,9.366451,0.1005601,-0.8906748,22.125,0.625,-2.25,-7.108227,-82.39511,-171.4207,0.751946,0.6590381,-0.002657666,-0.01545677
21879,3.529701,-0.4659908,-5.004718,0,0,0,9.313777,-0.2825259,-0.8475776,25,0.125,-1.75,-7.079889,-82.432,-171.4457,0.751739,0.6592748,-0.002730794,-0.01542489
21890,3.529744,-0.4659119,-5.004803,0,0,0,9.232371,-0.6464576,-0.9385605,27.25,-0.5,-2.5,-7.387591,-82.43667,-171.1012,0.7516727,0.6593389,-0.002698353,-0.01591039
21902,3.52978,-0.465849,-5.004887,0,0,0,9.23716,-0.5554746,-0.9816577,27.875,-0.75,-3.875,-7.432946,-82.43618,-171.0109,0.7516637,0.6593401,-0.002919945,-0.01624208
21913,3.529816,-0.4658343,-5.004966,0,0,0,9.275469,-0.258583,-0.9960235,27.25,-0.5,-4.5,-7.059407,-82.44605,-171.3499,0.7516457,0.6593603,-0.003428667,-0.01616007
21925,3.529845,-0.4658403,-5.005037,0,0,0,9.318565,-0.1292915,-1.048698,26,-0.125,-4,-6.586754,-82.45449,-171.8062,0.7516457,0.6593643,-0.00391023,-0.01587958
21936,3.529848,-0.4658487,-5.005106,0,0,0,9.3042,-0.1101372,-1.201932,24,0.75,-3.125,-6.177742,-82.4483,-172.226,0.7517242,0.6592826,-0.004172612,-0.01548346
21948,3.529826,-0.4658637,-5.005177,0,0,0,9.280257,-0.06704004,-1.350378,23.125,2,-2.25,-5.805423,-82.43361,-172.6221,0.7518468,0.6591522,-0.004325903,-0.01503735
21959,3.529813,-0.4658542,-5.005252,0,0,0,9.265891,-0.2059087,-1.292915,23.375,3.375,-1.75,-5.68335,-82.442,-172.7638,0.751813,0.6591961,-0.004317784,-0.01480429
21971,3.529822,-0.4657952,-5.005332,0,0,0,9.23716,-0.5028003,-1.139681,23.375,4.375,-2.25,-5.907437,-82.48099,-172.5554,0.7515713,0.659472,-0.004074552,-0.01485465
21982,3.529828,-0.4657445,-5.005414,0,0,0,9.241948,-0.4453374,-1.154046,23.375,5.25,-3.125,-5.983337,-82.53139,-172.4955,0.7512782,0.6598085,-0.003958263,-0.01477459
21994,3.529837,-0.4657436,-5.005489,0,0,0,9.285046,-0.1484458,-1.139681,24.125,5.75,-3.25,-5.691022,-82.59615,-172.797,0.750936,0.6602039,-0.004183905,-0.01443654
22005,3.529887,-0.4657582,-5.005559,0,0,0,9.328143,-0.03830859,-0.8763091,23.75,5.875,-2.625,-5.378453,-82.70129,-173.1245,0.7503632,0.6608623,-0.004414987,-0.01402248
22016,3.529969,-0.4657862,-5.005631,0,0,0,9.361663,0.04788574,-0.6847661,22.75,5.625,-1.5,-5.089636,-82.83366,-173.4433,0.749631,0.6617023,-0.004551441,-0.01351888
22029,3.530027,-0.4658253,-5.005712,0,0,0,9.352086,0.08619434,-0.8571548,22.375,5.125,0.125,-4.876425,-82.93345,-173.6957,0.7490782,0.6623376,-0.004548955,-0.01303923
22040,3.530056,-0.4658398,-5.005782,0,0,0,9.323354,-0.02873145,-0.9577149,23.625,4.75,1.25,-4.927649,-82.99834,-173.6642,0.7487041,0.6627638,-0.004435419,-0.01290996
22052,3.530108,-0.4658256,-5.00586,0,0,0,9.3042,-0.2011201,-0.8140576,24.625,4.375,1.75,-5.275557,-83.07596,-173.3218,0.7482318,0.6632952,-0.004192994,-0.01308553
22063,3.530179,-0.4657976,-5.005942,0,0,0,9.3042,-0.2825259,-0.6895547,24.75,3.75,1.875,-5.761368,-83.16212,-172.8391,0.7476975,0.6638936,-0.003875473,-0.01336617
22076,3.530279,-0.4657949,-5.006032,0,0,0,9.33772,-0.1388687,-0.584206,25.75,2.375,2,-6.084093,-83.25313,-172.5069,0.7471449,0.6645114,-0.003761003,-0.0135978
22087,3.530375,-0.4658372,-5.006096,0,0,0,9.409549,0.1388687,-0.4932232,26.25,0.75,3,-6.11072,-83.33102,-172.4684,0.746693,0.6650178,-0.003867982,-0.01363777
